Subject	Group	Trial	Condition	item	Remove	StimSlide.ACC	StimSlide.RT	Structure	Number	First_NP
202	monolingual	1	1	1	no	1	6211	Subject	Match	Singular
202	monolingual	1	1	2	no	1	3893	Subject	Match	Singular
202	monolingual	15	1	3	no	0	4372	Subject	Match	Singular
202	monolingual	26	1	4	no	1	3698	Subject	Match	Singular
202	monolingual	15	1	5	no	1	5628	Subject	Match	Singular
202	monolingual	33	1	6	no	1	3782	Subject	Match	Singular
202	monolingual	23	1	7	no	1	4683	Subject	Match	Singular
202	monolingual	26	1	8	no	1	3781	Subject	Match	Singular
202	monolingual	28	1	9	no	1	4208	Subject	Match	Singular
202	monolingual	24	1	10	no	1	5415	Subject	Match	Singular
202	monolingual	2	2	1	no	1	3517	Object	Match	Singular
202	monolingual	8	2	2	no	1	4855	Object	Match	Singular
202	monolingual	29	2	3	no	1	8656	Object	Match	Singular
202	monolingual	29	2	4	no	1	6931	Object	Match	Singular
202	monolingual	40	2	5	no	1	5948	Object	Match	Singular
202	monolingual	33	2	6	no	0	3218	Object	Match	Singular
202	monolingual	17	2	7	no	1	3498	Object	Match	Singular
202	monolingual	12	2	8	no	1	6089	Object	Match	Singular
202	monolingual	8	2	9	no	1	3860	Object	Match	Singular
202	monolingual	40	2	10	no	1	3928	Object	Match	Singular
202	monolingual	32	3	1	no	1	3708	Subject	Mismatch	Singular
202	monolingual	37	3	2	no	1	3884	Subject	Mismatch	Singular
202	monolingual	37	3	3	no	1	4530	Subject	Mismatch	Singular
202	monolingual	9	3	4	no	1	6452	Subject	Mismatch	Singular
202	monolingual	20	3	5	no	1	3076	Subject	Mismatch	Singular
202	monolingual	9	3	6	no	1	4047	Subject	Mismatch	Singular
202	monolingual	32	3	7	no	1	4847	Subject	Mismatch	Singular
202	monolingual	5	3	8	no	1	4042	Subject	Mismatch	Singular
202	monolingual	19	3	9	no	1	4045	Subject	Mismatch	Singular
202	monolingual	5	3	10	no	1	8018	Subject	Mismatch	Singular
202	monolingual	35	4	1	no	1	3159	Object	Mismatch	Singular
202	monolingual	25	4	2	no	1	3447	Object	Mismatch	Singular
202	monolingual	2	4	3	no	1	6793	Object	Mismatch	Singular
202	monolingual	12	4	4	no	1	3760	Object	Mismatch	Singular
202	monolingual	24	4	6	no	1	3328	Object	Mismatch	Singular
202	monolingual	16	4	7	no	1	4682	Object	Mismatch	Singular
202	monolingual	23	4	9	no	1	5919	Object	Mismatch	Singular
202	monolingual	16	4	10	no	1	3689	Object	Mismatch	Singular
202	monolingual	13	5	1	no	1	5142	Subject	Mismatch	Plural
202	monolingual	22	5	2	no	1	3973	Subject	Mismatch	Plural
202	monolingual	21	5	3	no	1	4722	Subject	Mismatch	Plural
202	monolingual	25	5	4	no	1	6953	Subject	Mismatch	Plural
202	monolingual	3	5	5	no	1	3391	Subject	Mismatch	Plural
202	monolingual	3	5	6	no	1	3857	Subject	Mismatch	Plural
202	monolingual	34	5	7	no	1	3570	Subject	Mismatch	Plural
202	monolingual	13	5	10	no	1	5782	Subject	Mismatch	Plural
202	monolingual	31	6	1	no	1	3736	Object	Mismatch	Plural
202	monolingual	10	6	2	no	1	4032	Object	Mismatch	Plural
202	monolingual	38	6	3	no	1	5890	Object	Mismatch	Plural
202	monolingual	18	6	4	no	1	6091	Object	Mismatch	Plural
202	monolingual	31	6	5	no	1	3174	Object	Mismatch	Plural
202	monolingual	10	6	6	no	1	5142	Object	Mismatch	Plural
202	monolingual	19	6	7	no	1	3981	Object	Mismatch	Plural
202	monolingual	6	6	9	no	1	4120	Object	Mismatch	Plural
202	monolingual	6	6	10	no	1	3757	Object	Mismatch	Plural
202	monolingual	11	7	1	no	1	5108	Subject	Match	Plural
202	monolingual	17	7	2	no	1	5414	Subject	Match	Plural
202	monolingual	30	7	3	no	1	5254	Subject	Match	Plural
202	monolingual	18	7	4	no	1	3759	Subject	Match	Plural
202	monolingual	30	7	5	no	1	3958	Subject	Match	Plural
202	monolingual	39	7	6	no	1	4620	Subject	Match	Plural
202	monolingual	7	7	7	no	1	4493	Subject	Match	Plural
202	monolingual	7	7	8	no	1	4469	Subject	Match	Plural
202	monolingual	11	7	9	no	1	3774	Subject	Match	Plural
202	monolingual	39	7	10	no	1	4982	Subject	Match	Plural
202	monolingual	21	8	1	no	1	4591	Object	Match	Plural
202	monolingual	27	8	2	no	1	4647	Object	Match	Plural
202	monolingual	4	8	3	no	1	4347	Object	Match	Plural
202	monolingual	36	8	4	no	1	4631	Object	Match	Plural
202	monolingual	36	8	5	no	1	8593	Object	Match	Plural
202	monolingual	27	8	6	no	1	4291	Object	Match	Plural
202	monolingual	4	8	7	no	1	4115	Object	Match	Plural
202	monolingual	14	8	8	no	1	8373	Object	Match	Plural
202	monolingual	14	8	9	no	1	3621	Object	Match	Plural
202	monolingual	20	8	10	no	1	4404	Object	Match	Plural
203	monolingual	1	1	1	no	1	9263	Subject	Match	Singular
203	monolingual	1	1	2	no	1	5421	Subject	Match	Singular
203	monolingual	15	1	3	no	1	4133	Subject	Match	Singular
203	monolingual	26	1	4	no	1	5430	Subject	Match	Singular
203	monolingual	15	1	5	no	1	4000	Subject	Match	Singular
203	monolingual	33	1	6	no	1	5114	Subject	Match	Singular
203	monolingual	23	1	7	no	1	7104	Subject	Match	Singular
203	monolingual	26	1	8	no	1	5308	Subject	Match	Singular
203	monolingual	28	1	9	no	1	7087	Subject	Match	Singular
203	monolingual	24	1	10	no	1	3733	Subject	Match	Singular
203	monolingual	2	2	1	no	1	3598	Object	Match	Singular
203	monolingual	8	2	2	no	1	5788	Object	Match	Singular
203	monolingual	29	2	3	no	1	5722	Object	Match	Singular
203	monolingual	29	2	4	no	1	5542	Object	Match	Singular
203	monolingual	40	2	5	no	1	8058	Object	Match	Singular
203	monolingual	33	2	6	no	1	3777	Object	Match	Singular
203	monolingual	17	2	7	no	1	3470	Object	Match	Singular
203	monolingual	12	2	8	no	1	4216	Object	Match	Singular
203	monolingual	8	2	9	no	1	3841	Object	Match	Singular
203	monolingual	40	2	10	no	1	4779	Object	Match	Singular
203	monolingual	32	3	1	no	1	7692	Subject	Mismatch	Singular
203	monolingual	37	3	2	no	1	5371	Subject	Mismatch	Singular
203	monolingual	37	3	3	no	1	5695	Subject	Mismatch	Singular
203	monolingual	9	3	4	no	1	7621	Subject	Mismatch	Singular
203	monolingual	20	3	5	no	1	3927	Subject	Mismatch	Singular
203	monolingual	9	3	6	no	1	5314	Subject	Mismatch	Singular
203	monolingual	32	3	7	no	1	4757	Subject	Mismatch	Singular
203	monolingual	5	3	8	no	1	3638	Subject	Mismatch	Singular
203	monolingual	19	3	9	no	1	4558	Subject	Mismatch	Singular
203	monolingual	5	3	10	no	1	4769	Subject	Mismatch	Singular
203	monolingual	35	4	1	no	1	5157	Object	Mismatch	Singular
203	monolingual	25	4	2	no	1	7274	Object	Mismatch	Singular
203	monolingual	2	4	3	no	1	7030	Object	Mismatch	Singular
203	monolingual	12	4	4	no	1	4787	Object	Mismatch	Singular
203	monolingual	24	4	6	no	1	4252	Object	Mismatch	Singular
203	monolingual	16	4	7	no	1	5707	Object	Mismatch	Singular
203	monolingual	23	4	9	no	1	3803	Object	Mismatch	Singular
203	monolingual	16	4	10	no	0	6344	Object	Mismatch	Singular
203	monolingual	13	5	1	no	1	5615	Subject	Mismatch	Plural
203	monolingual	22	5	2	no	1	3846	Subject	Mismatch	Plural
203	monolingual	21	5	3	no	1	4666	Subject	Mismatch	Plural
203	monolingual	25	5	4	no	1	5680	Subject	Mismatch	Plural
203	monolingual	3	5	5	no	1	7403	Subject	Mismatch	Plural
203	monolingual	3	5	6	no	1	3578	Subject	Mismatch	Plural
203	monolingual	34	5	7	no	1	6301	Subject	Mismatch	Plural
203	monolingual	13	5	10	no	1	6473	Subject	Mismatch	Plural
203	monolingual	31	6	1	no	1	8604	Object	Mismatch	Plural
203	monolingual	10	6	2	no	1	4733	Object	Mismatch	Plural
203	monolingual	38	6	3	no	1	3706	Object	Mismatch	Plural
203	monolingual	18	6	4	no	1	4492	Object	Mismatch	Plural
203	monolingual	31	6	5	no	1	4733	Object	Mismatch	Plural
203	monolingual	10	6	6	no	1	6677	Object	Mismatch	Plural
203	monolingual	19	6	7	no	1	5396	Object	Mismatch	Plural
203	monolingual	6	6	9	no	1	8168	Object	Mismatch	Plural
203	monolingual	6	6	10	no	1	3470	Object	Mismatch	Plural
203	monolingual	11	7	1	no	1	7723	Subject	Match	Plural
203	monolingual	17	7	2	no	1	5640	Subject	Match	Plural
203	monolingual	30	7	3	no	1	3983	Subject	Match	Plural
203	monolingual	18	7	4	no	1	4076	Subject	Match	Plural
203	monolingual	30	7	5	no	1	10317	Subject	Match	Plural
203	monolingual	39	7	6	no	1	3790	Subject	Match	Plural
203	monolingual	7	7	7	no	1	4500	Subject	Match	Plural
203	monolingual	7	7	8	no	1	6439	Subject	Match	Plural
203	monolingual	11	7	9	no	1	5341	Subject	Match	Plural
203	monolingual	39	7	10	no	1	5296	Subject	Match	Plural
203	monolingual	21	8	1	no	1	5905	Object	Match	Plural
203	monolingual	27	8	2	no	1	5419	Object	Match	Plural
203	monolingual	4	8	3	no	1	3568	Object	Match	Plural
203	monolingual	36	8	4	no	1	6270	Object	Match	Plural
203	monolingual	36	8	5	no	1	5472	Object	Match	Plural
203	monolingual	27	8	6	no	1	3408	Object	Match	Plural
203	monolingual	4	8	7	no	1	5837	Object	Match	Plural
203	monolingual	14	8	8	no	1	4586	Object	Match	Plural
203	monolingual	14	8	9	no	1	6147	Object	Match	Plural
203	monolingual	20	8	10	no	1	4927	Object	Match	Plural
205	monolingual	1	1	1	no	1	5360	Subject	Match	Singular
205	monolingual	1	1	2	no	1	4008	Subject	Match	Singular
205	monolingual	15	1	3	no	1	5495	Subject	Match	Singular
205	monolingual	26	1	4	no	1	3582	Subject	Match	Singular
205	monolingual	15	1	5	no	1	4268	Subject	Match	Singular
205	monolingual	33	1	6	no	1	4322	Subject	Match	Singular
205	monolingual	23	1	7	no	1	4145	Subject	Match	Singular
205	monolingual	26	1	8	no	1	4569	Subject	Match	Singular
205	monolingual	28	1	9	no	1	3619	Subject	Match	Singular
205	monolingual	24	1	10	no	1	3748	Subject	Match	Singular
205	monolingual	2	2	1	no	1	6006	Object	Match	Singular
205	monolingual	8	2	2	no	1	4526	Object	Match	Singular
205	monolingual	29	2	3	no	0	4003	Object	Match	Singular
205	monolingual	29	2	4	no	1	3837	Object	Match	Singular
205	monolingual	40	2	5	no	1	5047	Object	Match	Singular
205	monolingual	33	2	6	no	1	3614	Object	Match	Singular
205	monolingual	17	2	7	no	1	3673	Object	Match	Singular
205	monolingual	12	2	8	no	1	3645	Object	Match	Singular
205	monolingual	8	2	9	no	1	4304	Object	Match	Singular
205	monolingual	40	2	10	no	1	5633	Object	Match	Singular
205	monolingual	32	3	1	no	1	3711	Subject	Mismatch	Singular
205	monolingual	37	3	2	no	1	3750	Subject	Mismatch	Singular
205	monolingual	37	3	3	no	1	4744	Subject	Mismatch	Singular
205	monolingual	9	3	4	no	1	4529	Subject	Mismatch	Singular
205	monolingual	20	3	5	no	1	3178	Subject	Mismatch	Singular
205	monolingual	9	3	6	no	1	4723	Subject	Mismatch	Singular
205	monolingual	32	3	7	no	1	4734	Subject	Mismatch	Singular
205	monolingual	5	3	8	no	1	3951	Subject	Mismatch	Singular
205	monolingual	19	3	9	no	1	4348	Subject	Mismatch	Singular
205	monolingual	5	3	10	no	1	4927	Subject	Mismatch	Singular
205	monolingual	35	4	1	no	1	4022	Object	Mismatch	Singular
205	monolingual	25	4	2	no	1	3531	Object	Mismatch	Singular
205	monolingual	2	4	3	no	1	4686	Object	Mismatch	Singular
205	monolingual	12	4	4	no	1	3959	Object	Mismatch	Singular
205	monolingual	24	4	6	no	1	4486	Object	Mismatch	Singular
205	monolingual	16	4	7	no	1	4786	Object	Mismatch	Singular
205	monolingual	23	4	9	no	1	3643	Object	Mismatch	Singular
205	monolingual	16	4	10	no	1	4256	Object	Mismatch	Singular
205	monolingual	13	5	1	no	1	3861	Subject	Mismatch	Plural
205	monolingual	22	5	2	no	1	4270	Subject	Mismatch	Plural
205	monolingual	21	5	3	no	1	4635	Subject	Mismatch	Plural
205	monolingual	25	5	4	no	1	6646	Subject	Mismatch	Plural
205	monolingual	3	5	5	no	1	3895	Subject	Mismatch	Plural
205	monolingual	3	5	6	no	1	3712	Subject	Mismatch	Plural
205	monolingual	34	5	7	no	1	3756	Subject	Mismatch	Plural
205	monolingual	13	5	10	no	1	4577	Subject	Mismatch	Plural
205	monolingual	31	6	1	no	1	3884	Object	Mismatch	Plural
205	monolingual	10	6	2	no	1	3809	Object	Mismatch	Plural
205	monolingual	38	6	3	no	1	3932	Object	Mismatch	Plural
205	monolingual	18	6	4	no	1	3572	Object	Mismatch	Plural
205	monolingual	31	6	5	no	1	3398	Object	Mismatch	Plural
205	monolingual	10	6	6	no	1	3620	Object	Mismatch	Plural
205	monolingual	19	6	7	no	1	3542	Object	Mismatch	Plural
205	monolingual	6	6	9	no	1	4400	Object	Mismatch	Plural
205	monolingual	6	6	10	no	1	6025	Object	Mismatch	Plural
205	monolingual	11	7	1	no	1	4047	Subject	Match	Plural
205	monolingual	17	7	2	no	1	3714	Subject	Match	Plural
205	monolingual	30	7	3	no	1	3632	Subject	Match	Plural
205	monolingual	18	7	4	no	1	4051	Subject	Match	Plural
205	monolingual	30	7	5	no	1	4014	Subject	Match	Plural
205	monolingual	39	7	6	no	1	4185	Subject	Match	Plural
205	monolingual	7	7	7	no	1	4716	Subject	Match	Plural
205	monolingual	7	7	8	no	1	4201	Subject	Match	Plural
205	monolingual	11	7	9	no	1	3971	Subject	Match	Plural
205	monolingual	39	7	10	no	1	5375	Subject	Match	Plural
205	monolingual	21	8	1	no	1	4730	Object	Match	Plural
205	monolingual	27	8	2	no	1	4109	Object	Match	Plural
205	monolingual	4	8	3	no	1	3796	Object	Match	Plural
205	monolingual	36	8	4	no	1	5778	Object	Match	Plural
205	monolingual	36	8	5	no	1	6290	Object	Match	Plural
205	monolingual	27	8	6	no	1	3480	Object	Match	Plural
205	monolingual	4	8	7	no	1	5119	Object	Match	Plural
205	monolingual	14	8	8	no	1	5877	Object	Match	Plural
205	monolingual	14	8	9	no	1	3667	Object	Match	Plural
205	monolingual	20	8	10	no	1	4416	Object	Match	Plural
206	monolingual	1	1	1	no	1	3763	Subject	Match	Singular
206	monolingual	1	1	2	no	1	6564	Subject	Match	Singular
206	monolingual	15	1	3	no	1	7309	Subject	Match	Singular
206	monolingual	26	1	4	no	1	10406	Subject	Match	Singular
206	monolingual	15	1	5	no	1	6025	Subject	Match	Singular
206	monolingual	33	1	6	no	1	3422	Subject	Match	Singular
206	monolingual	23	1	7	no	1	4403	Subject	Match	Singular
206	monolingual	26	1	8	no	1	3826	Subject	Match	Singular
206	monolingual	28	1	9	no	1	5317	Subject	Match	Singular
206	monolingual	24	1	10	no	1	6816	Subject	Match	Singular
206	monolingual	2	2	1	no	1	4358	Object	Match	Singular
206	monolingual	8	2	2	no	1	5984	Object	Match	Singular
206	monolingual	29	2	3	no	1	3844	Object	Match	Singular
206	monolingual	29	2	4	no	1	8912	Object	Match	Singular
206	monolingual	40	2	5	no	1	4932	Object	Match	Singular
206	monolingual	33	2	6	no	1	8132	Object	Match	Singular
206	monolingual	17	2	7	no	1	12759	Object	Match	Singular
206	monolingual	12	2	8	no	1	3496	Object	Match	Singular
206	monolingual	8	2	9	no	0	4658	Object	Match	Singular
206	monolingual	40	2	10	no	1	7073	Object	Match	Singular
206	monolingual	32	3	1	no	1	5745	Subject	Mismatch	Singular
206	monolingual	37	3	2	no	1	4337	Subject	Mismatch	Singular
206	monolingual	37	3	3	no	1	4314	Subject	Mismatch	Singular
206	monolingual	9	3	4	no	1	4344	Subject	Mismatch	Singular
206	monolingual	20	3	5	no	1	5664	Subject	Mismatch	Singular
206	monolingual	9	3	6	no	1	9425	Subject	Mismatch	Singular
206	monolingual	32	3	7	no	1	4180	Subject	Mismatch	Singular
206	monolingual	5	3	8	no	1	3929	Subject	Mismatch	Singular
206	monolingual	19	3	9	no	1	3987	Subject	Mismatch	Singular
206	monolingual	5	3	10	no	1	4214	Subject	Mismatch	Singular
206	monolingual	35	4	1	no	1	3991	Object	Mismatch	Singular
206	monolingual	25	4	2	no	1	7438	Object	Mismatch	Singular
206	monolingual	2	4	3	no	1	4508	Object	Mismatch	Singular
206	monolingual	12	4	4	no	1	6188	Object	Mismatch	Singular
206	monolingual	24	4	6	no	1	5320	Object	Mismatch	Singular
206	monolingual	16	4	7	no	1	6880	Object	Mismatch	Singular
206	monolingual	23	4	9	no	1	6030	Object	Mismatch	Singular
206	monolingual	16	4	10	no	1	4540	Object	Mismatch	Singular
206	monolingual	13	5	1	no	1	4796	Subject	Mismatch	Plural
206	monolingual	22	5	2	no	1	8701	Subject	Mismatch	Plural
206	monolingual	21	5	3	no	1	4595	Subject	Mismatch	Plural
206	monolingual	25	5	4	no	1	9620	Subject	Mismatch	Plural
206	monolingual	3	5	5	no	1	3552	Subject	Mismatch	Plural
206	monolingual	3	5	6	no	1	4431	Subject	Mismatch	Plural
206	monolingual	34	5	7	no	1	7391	Subject	Mismatch	Plural
206	monolingual	13	5	10	no	1	4206	Subject	Mismatch	Plural
206	monolingual	31	6	1	no	1	4311	Object	Mismatch	Plural
206	monolingual	10	6	2	no	1	9939	Object	Mismatch	Plural
206	monolingual	38	6	3	no	1	6192	Object	Mismatch	Plural
206	monolingual	18	6	4	no	1	5775	Object	Mismatch	Plural
206	monolingual	31	6	5	no	1	5551	Object	Mismatch	Plural
206	monolingual	10	6	6	no	1	5635	Object	Mismatch	Plural
206	monolingual	19	6	7	no	0	4638	Object	Mismatch	Plural
206	monolingual	6	6	9	no	1	10352	Object	Mismatch	Plural
206	monolingual	6	6	10	no	1	4275	Object	Mismatch	Plural
206	monolingual	11	7	1	no	1	4948	Subject	Match	Plural
206	monolingual	17	7	2	no	1	7973	Subject	Match	Plural
206	monolingual	30	7	3	no	1	4392	Subject	Match	Plural
206	monolingual	18	7	4	no	1	4476	Subject	Match	Plural
206	monolingual	30	7	5	no	1	5326	Subject	Match	Plural
206	monolingual	39	7	6	no	1	5089	Subject	Match	Plural
206	monolingual	7	7	7	no	1	7750	Subject	Match	Plural
206	monolingual	7	7	8	no	1	4284	Subject	Match	Plural
206	monolingual	11	7	9	no	1	4623	Subject	Match	Plural
206	monolingual	39	7	10	no	1	4558	Subject	Match	Plural
206	monolingual	21	8	1	no	1	5682	Object	Match	Plural
206	monolingual	27	8	2	no	1	3982	Object	Match	Plural
206	monolingual	4	8	3	no	1	5077	Object	Match	Plural
206	monolingual	36	8	4	no	1	3569	Object	Match	Plural
206	monolingual	36	8	5	no	1	6042	Object	Match	Plural
206	monolingual	27	8	6	no	1	9826	Object	Match	Plural
206	monolingual	4	8	7	no	1	3827	Object	Match	Plural
206	monolingual	14	8	8	no	1	14118	Object	Match	Plural
206	monolingual	14	8	9	no	1	3591	Object	Match	Plural
206	monolingual	20	8	10	no	1	5712	Object	Match	Plural
207	monolingual	1	1	1	no	1	6778	Subject	Match	Singular
207	monolingual	1	1	2	no	1	4853	Subject	Match	Singular
207	monolingual	15	1	3	no	1	3692	Subject	Match	Singular
207	monolingual	26	1	4	no	1	13147	Subject	Match	Singular
207	monolingual	15	1	5	no	1	5740	Subject	Match	Singular
207	monolingual	33	1	6	no	1	3394	Subject	Match	Singular
207	monolingual	23	1	7	no	1	4121	Subject	Match	Singular
207	monolingual	26	1	8	no	1	5861	Subject	Match	Singular
207	monolingual	28	1	9	no	1	5026	Subject	Match	Singular
207	monolingual	24	1	10	no	1	10302	Subject	Match	Singular
207	monolingual	2	2	1	no	1	11776	Object	Match	Singular
207	monolingual	8	2	2	no	1	4880	Object	Match	Singular
207	monolingual	29	2	3	no	0	5811	Object	Match	Singular
207	monolingual	29	2	4	no	1	3521	Object	Match	Singular
207	monolingual	40	2	5	no	1	7384	Object	Match	Singular
207	monolingual	33	2	6	no	1	8636	Object	Match	Singular
207	monolingual	17	2	7	no	1	3774	Object	Match	Singular
207	monolingual	12	2	8	no	1	9667	Object	Match	Singular
207	monolingual	8	2	9	no	1	6671	Object	Match	Singular
207	monolingual	40	2	10	no	1	4459	Object	Match	Singular
207	monolingual	32	3	1	no	1	15094	Subject	Mismatch	Singular
207	monolingual	37	3	2	no	1	4659	Subject	Mismatch	Singular
207	monolingual	37	3	3	no	1	4597	Subject	Mismatch	Singular
207	monolingual	9	3	4	no	1	4747	Subject	Mismatch	Singular
207	monolingual	20	3	5	no	1	9067	Subject	Mismatch	Singular
207	monolingual	9	3	6	no	1	8642	Subject	Mismatch	Singular
207	monolingual	32	3	7	no	1	4891	Subject	Mismatch	Singular
207	monolingual	5	3	8	no	1	4017	Subject	Mismatch	Singular
207	monolingual	19	3	9	no	1	4644	Subject	Mismatch	Singular
207	monolingual	5	3	10	no	1	4467	Subject	Mismatch	Singular
207	monolingual	35	4	1	no	1	16269	Object	Mismatch	Singular
207	monolingual	25	4	2	no	1	5084	Object	Mismatch	Singular
207	monolingual	2	4	3	no	1	4285	Object	Mismatch	Singular
207	monolingual	12	4	4	no	1	5185	Object	Mismatch	Singular
207	monolingual	24	4	6	no	1	7209	Object	Mismatch	Singular
207	monolingual	16	4	7	no	1	5197	Object	Mismatch	Singular
207	monolingual	23	4	9	no	1	9251	Object	Mismatch	Singular
207	monolingual	16	4	10	no	1	6123	Object	Mismatch	Singular
207	monolingual	13	5	1	no	1	8301	Subject	Mismatch	Plural
207	monolingual	22	5	2	no	1	4006	Subject	Mismatch	Plural
207	monolingual	21	5	3	no	1	5938	Subject	Mismatch	Plural
207	monolingual	25	5	4	no	1	5283	Subject	Mismatch	Plural
207	monolingual	3	5	5	no	1	3957	Subject	Mismatch	Plural
207	monolingual	3	5	6	no	1	4980	Subject	Mismatch	Plural
207	monolingual	34	5	7	no	1	5720	Subject	Mismatch	Plural
207	monolingual	13	5	10	no	1	4193	Subject	Mismatch	Plural
207	monolingual	31	6	1	no	1	10775	Object	Mismatch	Plural
207	monolingual	10	6	2	no	1	4015	Object	Mismatch	Plural
207	monolingual	38	6	3	no	1	3702	Object	Mismatch	Plural
207	monolingual	18	6	4	no	0	5544	Object	Mismatch	Plural
207	monolingual	31	6	5	no	1	17046	Object	Mismatch	Plural
207	monolingual	10	6	6	no	1	4011	Object	Mismatch	Plural
207	monolingual	19	6	7	no	0	5916	Object	Mismatch	Plural
207	monolingual	6	6	9	no	1	5441	Object	Mismatch	Plural
207	monolingual	6	6	10	no	1	9970	Object	Mismatch	Plural
207	monolingual	11	7	1	no	1	3412	Subject	Match	Plural
207	monolingual	17	7	2	no	1	4306	Subject	Match	Plural
207	monolingual	30	7	3	no	1	3779	Subject	Match	Plural
207	monolingual	18	7	4	no	1	7090	Subject	Match	Plural
207	monolingual	30	7	5	no	1	8818	Subject	Match	Plural
207	monolingual	39	7	6	no	1	4135	Subject	Match	Plural
207	monolingual	7	7	7	no	1	4387	Subject	Match	Plural
207	monolingual	7	7	8	no	1	3665	Subject	Match	Plural
207	monolingual	11	7	9	no	1	5087	Subject	Match	Plural
207	monolingual	39	7	10	no	1	8403	Subject	Match	Plural
207	monolingual	21	8	1	no	1	3839	Object	Match	Plural
207	monolingual	27	8	2	no	1	8245	Object	Match	Plural
207	monolingual	4	8	3	no	1	3515	Object	Match	Plural
207	monolingual	36	8	4	no	1	6387	Object	Match	Plural
207	monolingual	36	8	5	no	1	4991	Object	Match	Plural
207	monolingual	27	8	6	no	1	3309	Object	Match	Plural
207	monolingual	4	8	7	no	1	3956	Object	Match	Plural
207	monolingual	14	8	8	no	1	4422	Object	Match	Plural
207	monolingual	14	8	9	no	1	5867	Object	Match	Plural
207	monolingual	20	8	10	no	1	6931	Object	Match	Plural
208	monolingual	1	1	1	no	1	4321	Subject	Match	Singular
208	monolingual	1	1	2	no	1	4920	Subject	Match	Singular
208	monolingual	15	1	3	no	1	3508	Subject	Match	Singular
208	monolingual	26	1	4	no	1	4169	Subject	Match	Singular
208	monolingual	15	1	5	no	1	3523	Subject	Match	Singular
208	monolingual	33	1	6	no	1	3820	Subject	Match	Singular
208	monolingual	23	1	7	no	1	4085	Subject	Match	Singular
208	monolingual	26	1	8	no	1	6412	Subject	Match	Singular
208	monolingual	28	1	9	no	1	2922	Subject	Match	Singular
208	monolingual	24	1	10	no	1	5835	Subject	Match	Singular
208	monolingual	2	2	1	no	1	3406	Object	Match	Singular
208	monolingual	8	2	2	no	1	5145	Object	Match	Singular
208	monolingual	29	2	3	no	0	6415	Object	Match	Singular
208	monolingual	29	2	4	no	1	5581	Object	Match	Singular
208	monolingual	40	2	5	no	0	4172	Object	Match	Singular
208	monolingual	33	2	6	no	1	4658	Object	Match	Singular
208	monolingual	17	2	7	no	0	5966	Object	Match	Singular
208	monolingual	12	2	8	no	1	3203	Object	Match	Singular
208	monolingual	8	2	9	no	1	5939	Object	Match	Singular
208	monolingual	40	2	10	no	0	3562	Object	Match	Singular
208	monolingual	32	3	1	no	1	4073	Subject	Mismatch	Singular
208	monolingual	37	3	2	no	1	4480	Subject	Mismatch	Singular
208	monolingual	37	3	3	no	1	7113	Subject	Mismatch	Singular
208	monolingual	9	3	4	no	1	6359	Subject	Mismatch	Singular
208	monolingual	20	3	5	no	1	3044	Subject	Mismatch	Singular
208	monolingual	9	3	6	no	1	3802	Subject	Mismatch	Singular
208	monolingual	32	3	7	no	1	5124	Subject	Mismatch	Singular
208	monolingual	5	3	8	no	1	3789	Subject	Mismatch	Singular
208	monolingual	19	3	9	no	1	4423	Subject	Mismatch	Singular
208	monolingual	5	3	10	no	1	3779	Subject	Mismatch	Singular
208	monolingual	35	4	1	no	0	4287	Object	Mismatch	Singular
208	monolingual	25	4	2	no	0	6691	Object	Mismatch	Singular
208	monolingual	2	4	3	no	0	5399	Object	Mismatch	Singular
208	monolingual	12	4	4	no	1	6128	Object	Mismatch	Singular
208	monolingual	24	4	6	no	0	6235	Object	Mismatch	Singular
208	monolingual	16	4	7	no	1	3825	Object	Mismatch	Singular
208	monolingual	23	4	9	no	0	3695	Object	Mismatch	Singular
208	monolingual	16	4	10	no	1	4362	Object	Mismatch	Singular
208	monolingual	13	5	1	no	1	3572	Subject	Mismatch	Plural
208	monolingual	22	5	2	no	1	3696	Subject	Mismatch	Plural
208	monolingual	21	5	3	no	1	5104	Subject	Mismatch	Plural
208	monolingual	25	5	4	no	1	4111	Subject	Mismatch	Plural
208	monolingual	3	5	5	no	1	3651	Subject	Mismatch	Plural
208	monolingual	3	5	6	no	1	3475	Subject	Mismatch	Plural
208	monolingual	34	5	7	no	0	3636	Subject	Mismatch	Plural
208	monolingual	13	5	10	no	1	3837	Subject	Mismatch	Plural
208	monolingual	31	6	1	no	0	4803	Object	Mismatch	Plural
208	monolingual	10	6	2	no	1	4482	Object	Mismatch	Plural
208	monolingual	38	6	3	no	0	4818	Object	Mismatch	Plural
208	monolingual	18	6	4	no	1	6699	Object	Mismatch	Plural
208	monolingual	31	6	5	no	0	3784	Object	Mismatch	Plural
208	monolingual	10	6	6	no	0	4243	Object	Mismatch	Plural
208	monolingual	19	6	7	no	1	3537	Object	Mismatch	Plural
208	monolingual	6	6	9	no	1	5675	Object	Mismatch	Plural
208	monolingual	6	6	10	no	1	3535	Object	Mismatch	Plural
208	monolingual	11	7	1	no	1	4432	Subject	Match	Plural
208	monolingual	17	7	2	no	1	3656	Subject	Match	Plural
208	monolingual	30	7	3	no	1	4356	Subject	Match	Plural
208	monolingual	18	7	4	no	1	3697	Subject	Match	Plural
208	monolingual	30	7	5	no	1	5895	Subject	Match	Plural
208	monolingual	39	7	6	no	0	5206	Subject	Match	Plural
208	monolingual	7	7	7	no	1	4117	Subject	Match	Plural
208	monolingual	7	7	8	no	1	6475	Subject	Match	Plural
208	monolingual	11	7	9	no	1	4699	Subject	Match	Plural
208	monolingual	39	7	10	no	1	5007	Subject	Match	Plural
208	monolingual	21	8	1	no	0	7040	Object	Match	Plural
208	monolingual	27	8	2	no	0	4697	Object	Match	Plural
208	monolingual	4	8	3	no	0	4266	Object	Match	Plural
208	monolingual	36	8	4	no	1	5462	Object	Match	Plural
208	monolingual	36	8	5	no	0	3129	Object	Match	Plural
208	monolingual	27	8	6	no	1	3262	Object	Match	Plural
208	monolingual	4	8	7	no	0	4381	Object	Match	Plural
208	monolingual	14	8	8	no	0	3700	Object	Match	Plural
208	monolingual	14	8	9	no	1	4158	Object	Match	Plural
208	monolingual	20	8	10	no	1	6369	Object	Match	Plural
209	monolingual	1	1	1	no	1	5288	Subject	Match	Singular
209	monolingual	1	1	2	no	1	3744	Subject	Match	Singular
209	monolingual	15	1	3	no	1	4138	Subject	Match	Singular
209	monolingual	26	1	4	no	1	3745	Subject	Match	Singular
209	monolingual	15	1	5	no	1	3200	Subject	Match	Singular
209	monolingual	33	1	6	no	1	3420	Subject	Match	Singular
209	monolingual	23	1	7	no	1	4534	Subject	Match	Singular
209	monolingual	26	1	8	no	1	5039	Subject	Match	Singular
209	monolingual	28	1	9	no	1	3968	Subject	Match	Singular
209	monolingual	24	1	10	no	1	4736	Subject	Match	Singular
209	monolingual	2	2	1	no	1	3462	Object	Match	Singular
209	monolingual	8	2	2	no	0	4628	Object	Match	Singular
209	monolingual	29	2	3	no	0	11918	Object	Match	Singular
209	monolingual	29	2	4	no	1	4092	Object	Match	Singular
209	monolingual	40	2	5	no	1	4507	Object	Match	Singular
209	monolingual	33	2	6	no	1	3933	Object	Match	Singular
209	monolingual	17	2	7	no	1	4687	Object	Match	Singular
209	monolingual	12	2	8	no	1	5423	Object	Match	Singular
209	monolingual	8	2	9	no	1	6697	Object	Match	Singular
209	monolingual	40	2	10	no	1	4404	Object	Match	Singular
209	monolingual	32	3	1	no	1	3915	Subject	Mismatch	Singular
209	monolingual	37	3	2	no	1	4708	Subject	Mismatch	Singular
209	monolingual	37	3	3	no	1	7372	Subject	Mismatch	Singular
209	monolingual	9	3	4	no	1	4757	Subject	Mismatch	Singular
209	monolingual	20	3	5	no	1	3228	Subject	Mismatch	Singular
209	monolingual	9	3	6	no	1	3872	Subject	Mismatch	Singular
209	monolingual	32	3	7	no	1	3880	Subject	Mismatch	Singular
209	monolingual	5	3	8	no	1	4025	Subject	Mismatch	Singular
209	monolingual	19	3	9	no	1	4974	Subject	Mismatch	Singular
209	monolingual	5	3	10	no	1	4384	Subject	Mismatch	Singular
209	monolingual	35	4	1	no	1	3553	Object	Mismatch	Singular
209	monolingual	25	4	2	no	1	5026	Object	Mismatch	Singular
209	monolingual	2	4	3	no	1	4708	Object	Mismatch	Singular
209	monolingual	12	4	4	no	1	4766	Object	Mismatch	Singular
209	monolingual	24	4	6	no	1	4738	Object	Mismatch	Singular
209	monolingual	16	4	7	no	1	3534	Object	Mismatch	Singular
209	monolingual	23	4	9	no	1	6985	Object	Mismatch	Singular
209	monolingual	16	4	10	no	1	5109	Object	Mismatch	Singular
209	monolingual	13	5	1	no	1	3588	Subject	Mismatch	Plural
209	monolingual	22	5	2	no	1	4979	Subject	Mismatch	Plural
209	monolingual	21	5	3	no	1	3909	Subject	Mismatch	Plural
209	monolingual	25	5	4	no	1	4166	Subject	Mismatch	Plural
209	monolingual	3	5	5	no	1	3682	Subject	Mismatch	Plural
209	monolingual	3	5	6	no	1	4672	Subject	Mismatch	Plural
209	monolingual	34	5	7	no	1	3577	Subject	Mismatch	Plural
209	monolingual	13	5	10	no	1	3995	Subject	Mismatch	Plural
209	monolingual	31	6	1	no	1	3759	Object	Mismatch	Plural
209	monolingual	10	6	2	no	1	4188	Object	Mismatch	Plural
209	monolingual	38	6	3	no	1	4383	Object	Mismatch	Plural
209	monolingual	18	6	4	no	1	4133	Object	Mismatch	Plural
209	monolingual	31	6	5	no	1	4964	Object	Mismatch	Plural
209	monolingual	10	6	6	no	1	3513	Object	Mismatch	Plural
209	monolingual	19	6	7	no	1	5536	Object	Mismatch	Plural
209	monolingual	6	6	9	no	1	4872	Object	Mismatch	Plural
209	monolingual	6	6	10	no	1	5302	Object	Mismatch	Plural
209	monolingual	11	7	1	no	1	4615	Subject	Match	Plural
209	monolingual	17	7	2	no	1	3960	Subject	Match	Plural
209	monolingual	30	7	3	no	1	3422	Subject	Match	Plural
209	monolingual	18	7	4	no	1	5594	Subject	Match	Plural
209	monolingual	30	7	5	no	1	4158	Subject	Match	Plural
209	monolingual	39	7	6	no	1	4844	Subject	Match	Plural
209	monolingual	7	7	7	no	1	4316	Subject	Match	Plural
209	monolingual	7	7	8	no	1	5000	Subject	Match	Plural
209	monolingual	11	7	9	no	1	4012	Subject	Match	Plural
209	monolingual	39	7	10	no	1	4987	Subject	Match	Plural
209	monolingual	21	8	1	no	1	5555	Object	Match	Plural
209	monolingual	27	8	2	no	1	3844	Object	Match	Plural
209	monolingual	4	8	3	no	1	5905	Object	Match	Plural
209	monolingual	36	8	4	no	1	6129	Object	Match	Plural
209	monolingual	36	8	5	no	1	7363	Object	Match	Plural
209	monolingual	27	8	6	no	1	4780	Object	Match	Plural
209	monolingual	4	8	7	no	1	4425	Object	Match	Plural
209	monolingual	14	8	8	no	1	5599	Object	Match	Plural
209	monolingual	14	8	9	no	1	3978	Object	Match	Plural
209	monolingual	20	8	10	no	1	10153	Object	Match	Plural
210	monolingual	1	1	1	no	1	6278	Subject	Match	Singular
210	monolingual	1	1	2	no	1	6148	Subject	Match	Singular
210	monolingual	15	1	3	no	1	4824	Subject	Match	Singular
210	monolingual	26	1	4	no	1	8655	Subject	Match	Singular
210	monolingual	15	1	5	no	1	6680	Subject	Match	Singular
210	monolingual	33	1	6	no	1	5053	Subject	Match	Singular
210	monolingual	23	1	7	no	1	6104	Subject	Match	Singular
210	monolingual	26	1	8	no	1	3865	Subject	Match	Singular
210	monolingual	28	1	9	no	1	4578	Subject	Match	Singular
210	monolingual	24	1	10	no	1	5819	Subject	Match	Singular
210	monolingual	2	2	1	no	1	7680	Object	Match	Singular
210	monolingual	8	2	2	no	1	6340	Object	Match	Singular
210	monolingual	29	2	3	no	1	10928	Object	Match	Singular
210	monolingual	29	2	4	no	1	5908	Object	Match	Singular
210	monolingual	40	2	5	no	1	7151	Object	Match	Singular
210	monolingual	33	2	6	no	1	5292	Object	Match	Singular
210	monolingual	17	2	7	no	1	11821	Object	Match	Singular
210	monolingual	12	2	8	no	0	6551	Object	Match	Singular
210	monolingual	8	2	9	no	1	4653	Object	Match	Singular
210	monolingual	40	2	10	no	1	12293	Object	Match	Singular
210	monolingual	32	3	1	no	1	7423	Subject	Mismatch	Singular
210	monolingual	37	3	2	no	1	4613	Subject	Mismatch	Singular
210	monolingual	37	3	3	no	1	5300	Subject	Mismatch	Singular
210	monolingual	9	3	4	no	1	7129	Subject	Mismatch	Singular
210	monolingual	20	3	5	no	1	4044	Subject	Mismatch	Singular
210	monolingual	9	3	6	no	1	11273	Subject	Mismatch	Singular
210	monolingual	32	3	7	no	1	5766	Subject	Mismatch	Singular
210	monolingual	5	3	8	no	1	5487	Subject	Mismatch	Singular
210	monolingual	19	3	9	no	1	5028	Subject	Mismatch	Singular
210	monolingual	5	3	10	no	1	5551	Subject	Mismatch	Singular
210	monolingual	35	4	1	no	1	6821	Object	Mismatch	Singular
210	monolingual	25	4	2	no	1	7737	Object	Mismatch	Singular
210	monolingual	2	4	3	no	1	8880	Object	Mismatch	Singular
210	monolingual	12	4	4	no	1	6674	Object	Mismatch	Singular
210	monolingual	24	4	6	no	1	4957	Object	Mismatch	Singular
210	monolingual	16	4	7	no	1	6197	Object	Mismatch	Singular
210	monolingual	23	4	9	no	1	9782	Object	Mismatch	Singular
210	monolingual	16	4	10	no	1	6354	Object	Mismatch	Singular
210	monolingual	13	5	1	no	1	9221	Subject	Mismatch	Plural
210	monolingual	22	5	2	no	1	3803	Subject	Mismatch	Plural
210	monolingual	21	5	3	no	1	5549	Subject	Mismatch	Plural
210	monolingual	25	5	4	no	0	19082	Subject	Mismatch	Plural
210	monolingual	3	5	5	no	1	5956	Subject	Mismatch	Plural
210	monolingual	3	5	6	no	1	5255	Subject	Mismatch	Plural
210	monolingual	34	5	7	no	1	3826	Subject	Mismatch	Plural
210	monolingual	13	5	10	no	1	5873	Subject	Mismatch	Plural
210	monolingual	31	6	1	no	1	7116	Object	Mismatch	Plural
210	monolingual	10	6	2	no	1	8324	Object	Mismatch	Plural
210	monolingual	38	6	3	no	1	7318	Object	Mismatch	Plural
210	monolingual	18	6	4	no	1	7163	Object	Mismatch	Plural
210	monolingual	31	6	5	no	1	5899	Object	Mismatch	Plural
210	monolingual	10	6	6	no	1	5576	Object	Mismatch	Plural
210	monolingual	19	6	7	no	1	6671	Object	Mismatch	Plural
210	monolingual	6	6	9	no	1	6216	Object	Mismatch	Plural
210	monolingual	6	6	10	no	1	8202	Object	Mismatch	Plural
210	monolingual	11	7	1	no	1	4763	Subject	Match	Plural
210	monolingual	17	7	2	no	1	4431	Subject	Match	Plural
210	monolingual	30	7	3	no	1	4004	Subject	Match	Plural
210	monolingual	18	7	4	no	1	5636	Subject	Match	Plural
210	monolingual	30	7	5	no	1	8841	Subject	Match	Plural
210	monolingual	39	7	6	no	1	8445	Subject	Match	Plural
210	monolingual	7	7	7	no	1	4881	Subject	Match	Plural
210	monolingual	7	7	8	no	1	5618	Subject	Match	Plural
210	monolingual	11	7	9	no	1	6536	Subject	Match	Plural
210	monolingual	39	7	10	no	1	4416	Subject	Match	Plural
210	monolingual	21	8	1	no	1	4529	Object	Match	Plural
210	monolingual	27	8	2	no	1	4356	Object	Match	Plural
210	monolingual	4	8	3	no	1	10129	Object	Match	Plural
210	monolingual	36	8	4	no	1	5193	Object	Match	Plural
210	monolingual	36	8	5	no	1	15700	Object	Match	Plural
210	monolingual	27	8	6	no	1	4673	Object	Match	Plural
210	monolingual	4	8	7	no	0	12357	Object	Match	Plural
210	monolingual	14	8	8	no	1	10833	Object	Match	Plural
210	monolingual	14	8	9	no	1	9856	Object	Match	Plural
210	monolingual	20	8	10	no	1	6946	Object	Match	Plural
211	monolingual	1	1	1	no	1	12750	Subject	Match	Singular
211	monolingual	1	1	2	no	1	10650	Subject	Match	Singular
211	monolingual	15	1	3	no	1	4146	Subject	Match	Singular
211	monolingual	26	1	4	no	1	9811	Subject	Match	Singular
211	monolingual	15	1	5	no	1	4060	Subject	Match	Singular
211	monolingual	33	1	6	no	1	5639	Subject	Match	Singular
211	monolingual	23	1	7	no	0	5761	Subject	Match	Singular
211	monolingual	26	1	8	no	1	5738	Subject	Match	Singular
211	monolingual	28	1	9	no	1	7277	Subject	Match	Singular
211	monolingual	24	1	10	no	1	6368	Subject	Match	Singular
211	monolingual	2	2	1	no	0	7014	Object	Match	Singular
211	monolingual	8	2	2	no	1	7988	Object	Match	Singular
211	monolingual	29	2	3	no	0	3646	Object	Match	Singular
211	monolingual	29	2	4	no	0	5123	Object	Match	Singular
211	monolingual	40	2	5	no	1	6031	Object	Match	Singular
211	monolingual	33	2	6	no	1	4919	Object	Match	Singular
211	monolingual	17	2	7	no	0	5341	Object	Match	Singular
211	monolingual	12	2	8	no	1	4483	Object	Match	Singular
211	monolingual	8	2	9	no	1	6188	Object	Match	Singular
211	monolingual	40	2	10	no	0	6322	Object	Match	Singular
211	monolingual	32	3	1	no	1	6437	Subject	Mismatch	Singular
211	monolingual	37	3	2	no	1	11656	Subject	Mismatch	Singular
211	monolingual	37	3	3	no	1	6524	Subject	Mismatch	Singular
211	monolingual	9	3	4	no	1	7719	Subject	Mismatch	Singular
211	monolingual	20	3	5	no	1	5341	Subject	Mismatch	Singular
211	monolingual	9	3	6	no	1	4405	Subject	Mismatch	Singular
211	monolingual	32	3	7	no	1	9878	Subject	Mismatch	Singular
211	monolingual	5	3	8	no	1	4143	Subject	Mismatch	Singular
211	monolingual	19	3	9	no	1	7135	Subject	Mismatch	Singular
211	monolingual	5	3	10	no	1	4786	Subject	Mismatch	Singular
211	monolingual	35	4	1	no	0	6827	Object	Mismatch	Singular
211	monolingual	25	4	2	no	0	6868	Object	Mismatch	Singular
211	monolingual	2	4	3	no	0	6073	Object	Mismatch	Singular
211	monolingual	12	4	4	no	1	5530	Object	Mismatch	Singular
211	monolingual	24	4	6	no	1	5989	Object	Mismatch	Singular
211	monolingual	16	4	7	no	0	4944	Object	Mismatch	Singular
211	monolingual	23	4	9	no	1	5328	Object	Mismatch	Singular
211	monolingual	16	4	10	no	0	6274	Object	Mismatch	Singular
211	monolingual	13	5	1	no	1	5523	Subject	Mismatch	Plural
211	monolingual	22	5	2	no	1	3873	Subject	Mismatch	Plural
211	monolingual	21	5	3	no	1	6101	Subject	Mismatch	Plural
211	monolingual	25	5	4	no	0	14176	Subject	Mismatch	Plural
211	monolingual	3	5	5	no	1	5369	Subject	Mismatch	Plural
211	monolingual	3	5	6	no	1	4978	Subject	Mismatch	Plural
211	monolingual	34	5	7	no	1	6468	Subject	Mismatch	Plural
211	monolingual	13	5	10	no	1	10539	Subject	Mismatch	Plural
211	monolingual	31	6	1	no	1	8735	Object	Mismatch	Plural
211	monolingual	10	6	2	no	1	4221	Object	Mismatch	Plural
211	monolingual	38	6	3	no	0	6754	Object	Mismatch	Plural
211	monolingual	18	6	4	no	1	6419	Object	Mismatch	Plural
211	monolingual	31	6	5	no	0	4301	Object	Mismatch	Plural
211	monolingual	10	6	6	no	1	6866	Object	Mismatch	Plural
211	monolingual	19	6	7	no	1	7271	Object	Mismatch	Plural
211	monolingual	6	6	9	no	1	4222	Object	Mismatch	Plural
211	monolingual	6	6	10	no	1	5262	Object	Mismatch	Plural
211	monolingual	11	7	1	no	1	4853	Subject	Match	Plural
211	monolingual	17	7	2	no	1	4727	Subject	Match	Plural
211	monolingual	30	7	3	no	0	3823	Subject	Match	Plural
211	monolingual	18	7	4	no	1	6174	Subject	Match	Plural
211	monolingual	30	7	5	no	1	5903	Subject	Match	Plural
211	monolingual	39	7	6	no	1	3575	Subject	Match	Plural
211	monolingual	7	7	7	no	1	4809	Subject	Match	Plural
211	monolingual	7	7	8	no	1	3839	Subject	Match	Plural
211	monolingual	11	7	9	no	0	6059	Subject	Match	Plural
211	monolingual	39	7	10	no	1	6016	Subject	Match	Plural
211	monolingual	21	8	1	no	1	7502	Object	Match	Plural
211	monolingual	27	8	2	no	1	5430	Object	Match	Plural
211	monolingual	4	8	3	no	0	4572	Object	Match	Plural
211	monolingual	36	8	4	no	0	8899	Object	Match	Plural
211	monolingual	36	8	5	no	1	5195	Object	Match	Plural
211	monolingual	27	8	6	no	0	3693	Object	Match	Plural
211	monolingual	4	8	7	no	0	5174	Object	Match	Plural
211	monolingual	14	8	8	no	1	7786	Object	Match	Plural
211	monolingual	14	8	9	no	1	3584	Object	Match	Plural
211	monolingual	20	8	10	no	0	4963	Object	Match	Plural
212	monolingual	1	1	1	no	1	3862	Subject	Match	Singular
212	monolingual	1	1	2	no	1	3503	Subject	Match	Singular
212	monolingual	15	1	3	no	1	10965	Subject	Match	Singular
212	monolingual	26	1	4	no	1	5895	Subject	Match	Singular
212	monolingual	15	1	5	no	1	4383	Subject	Match	Singular
212	monolingual	33	1	6	no	1	3566	Subject	Match	Singular
212	monolingual	23	1	7	no	1	3882	Subject	Match	Singular
212	monolingual	26	1	8	no	1	4776	Subject	Match	Singular
212	monolingual	28	1	9	no	1	3702	Subject	Match	Singular
212	monolingual	24	1	10	no	1	3549	Subject	Match	Singular
212	monolingual	2	2	1	no	1	5372	Object	Match	Singular
212	monolingual	8	2	2	no	1	3328	Object	Match	Singular
212	monolingual	29	2	3	no	0	4780	Object	Match	Singular
212	monolingual	29	2	4	no	1	4610	Object	Match	Singular
212	monolingual	40	2	5	no	1	3308	Object	Match	Singular
212	monolingual	33	2	6	no	1	3162	Object	Match	Singular
212	monolingual	17	2	7	no	1	4169	Object	Match	Singular
212	monolingual	12	2	8	no	1	6600	Object	Match	Singular
212	monolingual	8	2	9	no	1	5652	Object	Match	Singular
212	monolingual	40	2	10	no	1	4394	Object	Match	Singular
212	monolingual	32	3	1	no	1	5941	Subject	Mismatch	Singular
212	monolingual	37	3	2	no	1	3862	Subject	Mismatch	Singular
212	monolingual	37	3	3	no	1	3827	Subject	Mismatch	Singular
212	monolingual	9	3	4	no	1	3491	Subject	Mismatch	Singular
212	monolingual	20	3	5	no	1	2778	Subject	Mismatch	Singular
212	monolingual	9	3	6	no	1	6085	Subject	Mismatch	Singular
212	monolingual	32	3	7	no	1	3692	Subject	Mismatch	Singular
212	monolingual	5	3	8	no	1	3595	Subject	Mismatch	Singular
212	monolingual	19	3	9	no	1	10328	Subject	Mismatch	Singular
212	monolingual	5	3	10	no	1	6958	Subject	Mismatch	Singular
212	monolingual	35	4	1	no	1	3082	Object	Mismatch	Singular
212	monolingual	25	4	2	no	1	5291	Object	Mismatch	Singular
212	monolingual	2	4	3	no	1	9221	Object	Mismatch	Singular
212	monolingual	12	4	4	no	1	3357	Object	Mismatch	Singular
212	monolingual	24	4	6	no	1	4852	Object	Mismatch	Singular
212	monolingual	16	4	7	no	1	3341	Object	Mismatch	Singular
212	monolingual	23	4	9	no	1	5517	Object	Mismatch	Singular
212	monolingual	16	4	10	no	1	4716	Object	Mismatch	Singular
212	monolingual	13	5	1	no	1	4317	Subject	Mismatch	Plural
212	monolingual	22	5	2	no	0	6873	Subject	Mismatch	Plural
212	monolingual	21	5	3	no	1	3749	Subject	Mismatch	Plural
212	monolingual	25	5	4	no	0	5358	Subject	Mismatch	Plural
212	monolingual	3	5	5	no	1	3308	Subject	Mismatch	Plural
212	monolingual	3	5	6	no	1	3454	Subject	Mismatch	Plural
212	monolingual	34	5	7	no	1	3984	Subject	Mismatch	Plural
212	monolingual	13	5	10	no	1	3954	Subject	Mismatch	Plural
212	monolingual	31	6	1	no	1	7172	Object	Mismatch	Plural
212	monolingual	10	6	2	no	1	3930	Object	Mismatch	Plural
212	monolingual	38	6	3	no	1	3399	Object	Mismatch	Plural
212	monolingual	18	6	4	no	1	7627	Object	Mismatch	Plural
212	monolingual	31	6	5	no	1	3251	Object	Mismatch	Plural
212	monolingual	10	6	6	no	0	3181	Object	Mismatch	Plural
212	monolingual	19	6	7	no	1	3690	Object	Mismatch	Plural
212	monolingual	6	6	9	no	1	7745	Object	Mismatch	Plural
212	monolingual	6	6	10	no	1	3432	Object	Mismatch	Plural
212	monolingual	11	7	1	no	1	3861	Subject	Match	Plural
212	monolingual	17	7	2	no	1	3586	Subject	Match	Plural
212	monolingual	30	7	3	no	1	3459	Subject	Match	Plural
212	monolingual	18	7	4	no	1	3659	Subject	Match	Plural
212	monolingual	30	7	5	no	1	3744	Subject	Match	Plural
212	monolingual	39	7	6	no	1	10527	Subject	Match	Plural
212	monolingual	7	7	7	no	1	4088	Subject	Match	Plural
212	monolingual	7	7	8	no	1	4035	Subject	Match	Plural
212	monolingual	11	7	9	no	1	3532	Subject	Match	Plural
212	monolingual	39	7	10	no	1	4238	Subject	Match	Plural
212	monolingual	21	8	1	no	1	4687	Object	Match	Plural
212	monolingual	27	8	2	no	1	4952	Object	Match	Plural
212	monolingual	4	8	3	no	1	3471	Object	Match	Plural
212	monolingual	36	8	4	no	1	3685	Object	Match	Plural
212	monolingual	36	8	5	no	1	4174	Object	Match	Plural
212	monolingual	27	8	6	no	1	7538	Object	Match	Plural
212	monolingual	4	8	7	no	1	6395	Object	Match	Plural
212	monolingual	14	8	8	no	1	4160	Object	Match	Plural
212	monolingual	14	8	9	no	1	3370	Object	Match	Plural
212	monolingual	20	8	10	no	1	6026	Object	Match	Plural
213	monolingual	1	1	1	no	1	6822	Subject	Match	Singular
213	monolingual	1	1	2	no	1	4160	Subject	Match	Singular
213	monolingual	15	1	3	no	1	4051	Subject	Match	Singular
213	monolingual	26	1	4	no	1	5249	Subject	Match	Singular
213	monolingual	15	1	5	no	1	110	Subject	Match	Singular
213	monolingual	33	1	6	no	1	4161	Subject	Match	Singular
213	monolingual	23	1	7	no	1	4079	Subject	Match	Singular
213	monolingual	26	1	8	no	1	3485	Subject	Match	Singular
213	monolingual	28	1	9	no	1	3702	Subject	Match	Singular
213	monolingual	24	1	10	no	1	3744	Subject	Match	Singular
213	monolingual	2	2	1	no	1	3391	Object	Match	Singular
213	monolingual	8	2	2	no	1	4719	Object	Match	Singular
213	monolingual	29	2	3	no	1	5141	Object	Match	Singular
213	monolingual	29	2	4	no	1	4197	Object	Match	Singular
213	monolingual	40	2	5	no	1	3602	Object	Match	Singular
213	monolingual	33	2	6	no	1	3440	Object	Match	Singular
213	monolingual	17	2	7	no	1	4006	Object	Match	Singular
213	monolingual	12	2	8	no	1	3987	Object	Match	Singular
213	monolingual	8	2	9	no	1	3763	Object	Match	Singular
213	monolingual	40	2	10	no	1	3506	Object	Match	Singular
213	monolingual	32	3	1	no	1	3677	Subject	Mismatch	Singular
213	monolingual	37	3	2	no	1	3682	Subject	Mismatch	Singular
213	monolingual	37	3	3	no	1	5068	Subject	Mismatch	Singular
213	monolingual	9	3	4	no	1	6003	Subject	Mismatch	Singular
213	monolingual	20	3	5	no	1	2835	Subject	Mismatch	Singular
213	monolingual	9	3	6	no	1	3534	Subject	Mismatch	Singular
213	monolingual	32	3	7	no	1	3783	Subject	Mismatch	Singular
213	monolingual	5	3	8	no	1	3628	Subject	Mismatch	Singular
213	monolingual	19	3	9	no	1	4309	Subject	Mismatch	Singular
213	monolingual	5	3	10	no	1	5062	Subject	Mismatch	Singular
213	monolingual	35	4	1	no	1	4310	Object	Mismatch	Singular
213	monolingual	25	4	2	no	1	3084	Object	Mismatch	Singular
213	monolingual	2	4	3	no	1	6152	Object	Mismatch	Singular
213	monolingual	12	4	4	no	1	5501	Object	Mismatch	Singular
213	monolingual	24	4	6	no	1	5415	Object	Mismatch	Singular
213	monolingual	16	4	7	no	1	5615	Object	Mismatch	Singular
213	monolingual	23	4	9	no	1	3357	Object	Mismatch	Singular
213	monolingual	16	4	10	no	1	3606	Object	Mismatch	Singular
213	monolingual	13	5	1	no	1	3619	Subject	Mismatch	Plural
213	monolingual	22	5	2	no	1	3575	Subject	Mismatch	Plural
213	monolingual	21	5	3	no	1	6070	Subject	Mismatch	Plural
213	monolingual	25	5	4	no	1	3976	Subject	Mismatch	Plural
213	monolingual	3	5	5	no	1	3421	Subject	Mismatch	Plural
213	monolingual	3	5	6	no	1	3586	Subject	Mismatch	Plural
213	monolingual	34	5	7	no	1	3666	Subject	Mismatch	Plural
213	monolingual	13	5	10	no	1	5044	Subject	Mismatch	Plural
213	monolingual	31	6	1	no	1	3825	Object	Mismatch	Plural
213	monolingual	10	6	2	no	0	3548	Object	Mismatch	Plural
213	monolingual	38	6	3	no	1	4745	Object	Mismatch	Plural
213	monolingual	18	6	4	no	1	6502	Object	Mismatch	Plural
213	monolingual	31	6	5	no	1	3302	Object	Mismatch	Plural
213	monolingual	10	6	6	no	1	4211	Object	Mismatch	Plural
213	monolingual	19	6	7	no	1	3698	Object	Mismatch	Plural
213	monolingual	6	6	9	no	1	5025	Object	Mismatch	Plural
213	monolingual	6	6	10	no	1	3410	Object	Mismatch	Plural
213	monolingual	11	7	1	no	0	78	Subject	Match	Plural
213	monolingual	17	7	2	no	1	3658	Subject	Match	Plural
213	monolingual	30	7	3	no	1	3531	Subject	Match	Plural
213	monolingual	18	7	4	no	1	3499	Subject	Match	Plural
213	monolingual	30	7	5	no	0	180	Subject	Match	Plural
213	monolingual	39	7	6	no	1	3635	Subject	Match	Plural
213	monolingual	7	7	7	no	1	4171	Subject	Match	Plural
213	monolingual	7	7	8	no	1	3818	Subject	Match	Plural
213	monolingual	11	7	9	no	1	3600	Subject	Match	Plural
213	monolingual	39	7	10	no	1	4157	Subject	Match	Plural
213	monolingual	21	8	1	no	1	4018	Object	Match	Plural
213	monolingual	27	8	2	no	1	3777	Object	Match	Plural
213	monolingual	4	8	3	no	1	6747	Object	Match	Plural
213	monolingual	36	8	4	no	1	3729	Object	Match	Plural
213	monolingual	36	8	5	no	1	2982	Object	Match	Plural
213	monolingual	27	8	6	no	1	3396	Object	Match	Plural
213	monolingual	4	8	7	no	1	3516	Object	Match	Plural
213	monolingual	14	8	8	no	1	7292	Object	Match	Plural
213	monolingual	14	8	9	no	1	3276	Object	Match	Plural
213	monolingual	20	8	10	no	1	3852	Object	Match	Plural
214	monolingual	1	1	1	no	1	12187	Subject	Match	Singular
214	monolingual	1	1	2	no	1	7026	Subject	Match	Singular
214	monolingual	15	1	3	no	1	6410	Subject	Match	Singular
214	monolingual	26	1	4	no	0	6730	Subject	Match	Singular
214	monolingual	15	1	5	no	1	4985	Subject	Match	Singular
214	monolingual	33	1	6	no	1	5772	Subject	Match	Singular
214	monolingual	23	1	7	no	0	9964	Subject	Match	Singular
214	monolingual	26	1	8	no	1	4180	Subject	Match	Singular
214	monolingual	28	1	9	no	1	7643	Subject	Match	Singular
214	monolingual	24	1	10	no	1	4628	Subject	Match	Singular
214	monolingual	2	2	1	no	0	4463	Object	Match	Singular
214	monolingual	8	2	2	no	0	5955	Object	Match	Singular
214	monolingual	29	2	3	no	0	6192	Object	Match	Singular
214	monolingual	29	2	4	no	0	3871	Object	Match	Singular
214	monolingual	40	2	5	no	0	9269	Object	Match	Singular
214	monolingual	33	2	6	no	0	4599	Object	Match	Singular
214	monolingual	17	2	7	no	0	3856	Object	Match	Singular
214	monolingual	12	2	8	no	0	5064	Object	Match	Singular
214	monolingual	8	2	9	no	0	5347	Object	Match	Singular
214	monolingual	40	2	10	no	1	4287	Object	Match	Singular
214	monolingual	32	3	1	no	1	4322	Subject	Mismatch	Singular
214	monolingual	37	3	2	no	1	7236	Subject	Mismatch	Singular
214	monolingual	37	3	3	no	1	7444	Subject	Mismatch	Singular
214	monolingual	9	3	4	no	1	6866	Subject	Mismatch	Singular
214	monolingual	20	3	5	no	0	6916	Subject	Mismatch	Singular
214	monolingual	9	3	6	no	1	5681	Subject	Mismatch	Singular
214	monolingual	32	3	7	no	1	8771	Subject	Mismatch	Singular
214	monolingual	5	3	8	no	1	4263	Subject	Mismatch	Singular
214	monolingual	19	3	9	no	1	4146	Subject	Mismatch	Singular
214	monolingual	5	3	10	no	1	7024	Subject	Mismatch	Singular
214	monolingual	35	4	1	no	0	518	Object	Mismatch	Singular
214	monolingual	25	4	2	no	1	4324	Object	Mismatch	Singular
214	monolingual	2	4	3	no	0	10736	Object	Mismatch	Singular
214	monolingual	12	4	4	no	1	12166	Object	Mismatch	Singular
214	monolingual	24	4	6	no	1	8611	Object	Mismatch	Singular
214	monolingual	16	4	7	no	0	6034	Object	Mismatch	Singular
214	monolingual	23	4	9	no	1	7886	Object	Mismatch	Singular
214	monolingual	16	4	10	no	0	8945	Object	Mismatch	Singular
214	monolingual	13	5	1	no	1	5221	Subject	Mismatch	Plural
214	monolingual	22	5	2	no	1	5787	Subject	Mismatch	Plural
214	monolingual	21	5	3	no	1	5251	Subject	Mismatch	Plural
214	monolingual	25	5	4	no	1	4368	Subject	Mismatch	Plural
214	monolingual	3	5	5	no	1	9263	Subject	Mismatch	Plural
214	monolingual	3	5	6	no	0	3661	Subject	Mismatch	Plural
214	monolingual	34	5	7	no	1	4066	Subject	Mismatch	Plural
214	monolingual	13	5	10	no	1	4471	Subject	Mismatch	Plural
214	monolingual	31	6	1	no	0	9697	Object	Mismatch	Plural
214	monolingual	10	6	2	no	1	12531	Object	Mismatch	Plural
214	monolingual	38	6	3	no	0	5375	Object	Mismatch	Plural
214	monolingual	18	6	4	no	1	6712	Object	Mismatch	Plural
214	monolingual	31	6	5	no	1	5118	Object	Mismatch	Plural
214	monolingual	10	6	6	no	0	7493	Object	Mismatch	Plural
214	monolingual	19	6	7	no	0	7887	Object	Mismatch	Plural
214	monolingual	6	6	9	no	0	7734	Object	Mismatch	Plural
214	monolingual	6	6	10	no	0	8104	Object	Mismatch	Plural
214	monolingual	11	7	1	no	1	7111	Subject	Match	Plural
214	monolingual	17	7	2	no	1	9152	Subject	Match	Plural
214	monolingual	30	7	3	no	0	4758	Subject	Match	Plural
214	monolingual	18	7	4	no	0	6458	Subject	Match	Plural
214	monolingual	30	7	5	no	1	3928	Subject	Match	Plural
214	monolingual	39	7	6	no	1	4202	Subject	Match	Plural
214	monolingual	7	7	7	no	1	8199	Subject	Match	Plural
214	monolingual	7	7	8	no	1	7988	Subject	Match	Plural
214	monolingual	11	7	9	no	1	3889	Subject	Match	Plural
214	monolingual	39	7	10	no	1	10057	Subject	Match	Plural
214	monolingual	21	8	1	no	1	9505	Object	Match	Plural
214	monolingual	27	8	2	no	0	4500	Object	Match	Plural
214	monolingual	4	8	3	no	0	4402	Object	Match	Plural
214	monolingual	36	8	4	no	0	6718	Object	Match	Plural
214	monolingual	36	8	5	no	1	6495	Object	Match	Plural
214	monolingual	27	8	6	no	0	5884	Object	Match	Plural
214	monolingual	4	8	7	no	0	9447	Object	Match	Plural
214	monolingual	14	8	8	no	0	3662	Object	Match	Plural
214	monolingual	14	8	9	no	0	12003	Object	Match	Plural
214	monolingual	20	8	10	no	1	5532	Object	Match	Plural
215	monolingual	1	1	1	no	1	6841	Subject	Match	Singular
215	monolingual	1	1	2	no	1	4461	Subject	Match	Singular
215	monolingual	15	1	3	no	1	6757	Subject	Match	Singular
215	monolingual	26	1	4	no	1	3181	Subject	Match	Singular
215	monolingual	15	1	5	no	1	3555	Subject	Match	Singular
215	monolingual	33	1	6	no	1	3733	Subject	Match	Singular
215	monolingual	23	1	7	no	1	4184	Subject	Match	Singular
215	monolingual	26	1	8	no	1	3703	Subject	Match	Singular
215	monolingual	28	1	9	no	1	3897	Subject	Match	Singular
215	monolingual	24	1	10	no	1	6572	Subject	Match	Singular
215	monolingual	2	2	1	no	1	4908	Object	Match	Singular
215	monolingual	8	2	2	no	0	4057	Object	Match	Singular
215	monolingual	29	2	3	no	1	5677	Object	Match	Singular
215	monolingual	29	2	4	no	1	6652	Object	Match	Singular
215	monolingual	40	2	5	no	1	5518	Object	Match	Singular
215	monolingual	33	2	6	no	1	3267	Object	Match	Singular
215	monolingual	17	2	7	no	1	3533	Object	Match	Singular
215	monolingual	12	2	8	no	1	3887	Object	Match	Singular
215	monolingual	8	2	9	no	1	3925	Object	Match	Singular
215	monolingual	40	2	10	no	1	3924	Object	Match	Singular
215	monolingual	32	3	1	no	1	5278	Subject	Mismatch	Singular
215	monolingual	37	3	2	no	1	4130	Subject	Mismatch	Singular
215	monolingual	37	3	3	no	1	5466	Subject	Mismatch	Singular
215	monolingual	9	3	4	no	1	3712	Subject	Mismatch	Singular
215	monolingual	20	3	5	no	1	3679	Subject	Mismatch	Singular
215	monolingual	9	3	6	no	1	5014	Subject	Mismatch	Singular
215	monolingual	32	3	7	no	1	7026	Subject	Mismatch	Singular
215	monolingual	5	3	8	no	1	4423	Subject	Mismatch	Singular
215	monolingual	19	3	9	no	1	4884	Subject	Mismatch	Singular
215	monolingual	5	3	10	no	1	4245	Subject	Mismatch	Singular
215	monolingual	35	4	1	no	1	7123	Object	Mismatch	Singular
215	monolingual	25	4	2	no	1	3563	Object	Mismatch	Singular
215	monolingual	2	4	3	no	1	5454	Object	Mismatch	Singular
215	monolingual	12	4	4	no	1	4631	Object	Mismatch	Singular
215	monolingual	24	4	6	no	1	4234	Object	Mismatch	Singular
215	monolingual	16	4	7	no	1	6781	Object	Mismatch	Singular
215	monolingual	23	4	9	no	1	5088	Object	Mismatch	Singular
215	monolingual	16	4	10	no	1	5676	Object	Mismatch	Singular
215	monolingual	13	5	1	no	1	5434	Subject	Mismatch	Plural
215	monolingual	22	5	2	no	1	3471	Subject	Mismatch	Plural
215	monolingual	21	5	3	no	1	6090	Subject	Mismatch	Plural
215	monolingual	25	5	4	no	1	5502	Subject	Mismatch	Plural
215	monolingual	3	5	5	no	1	3424	Subject	Mismatch	Plural
215	monolingual	3	5	6	no	1	3835	Subject	Mismatch	Plural
215	monolingual	34	5	7	no	1	5110	Subject	Mismatch	Plural
215	monolingual	13	5	10	no	1	4164	Subject	Mismatch	Plural
215	monolingual	31	6	1	no	1	4992	Object	Mismatch	Plural
215	monolingual	10	6	2	no	1	6204	Object	Mismatch	Plural
215	monolingual	38	6	3	no	1	6236	Object	Mismatch	Plural
215	monolingual	18	6	4	no	1	3703	Object	Mismatch	Plural
215	monolingual	31	6	5	no	0	4372	Object	Mismatch	Plural
215	monolingual	10	6	6	no	1	3902	Object	Mismatch	Plural
215	monolingual	19	6	7	no	1	5930	Object	Mismatch	Plural
215	monolingual	6	6	9	no	1	9608	Object	Mismatch	Plural
215	monolingual	6	6	10	no	1	4701	Object	Mismatch	Plural
215	monolingual	11	7	1	no	1	3916	Subject	Match	Plural
215	monolingual	17	7	2	no	1	5130	Subject	Match	Plural
215	monolingual	30	7	3	no	1	3973	Subject	Match	Plural
215	monolingual	18	7	4	no	1	5713	Subject	Match	Plural
215	monolingual	30	7	5	no	1	5943	Subject	Match	Plural
215	monolingual	39	7	6	no	1	4400	Subject	Match	Plural
215	monolingual	7	7	7	no	1	4281	Subject	Match	Plural
215	monolingual	7	7	8	no	1	5773	Subject	Match	Plural
215	monolingual	11	7	9	no	1	4083	Subject	Match	Plural
215	monolingual	39	7	10	no	1	4426	Subject	Match	Plural
215	monolingual	21	8	1	no	1	6534	Object	Match	Plural
215	monolingual	27	8	2	no	1	3560	Object	Match	Plural
215	monolingual	4	8	3	no	1	6720	Object	Match	Plural
215	monolingual	36	8	4	no	1	4777	Object	Match	Plural
215	monolingual	36	8	5	no	1	5493	Object	Match	Plural
215	monolingual	27	8	6	no	1	3301	Object	Match	Plural
215	monolingual	4	8	7	no	0	3463	Object	Match	Plural
215	monolingual	14	8	8	no	1	5664	Object	Match	Plural
215	monolingual	14	8	9	no	1	6508	Object	Match	Plural
215	monolingual	20	8	10	no	0	3969	Object	Match	Plural
216	monolingual	1	1	1	no	1	4032	Subject	Match	Singular
216	monolingual	1	1	2	no	1	3430	Subject	Match	Singular
216	monolingual	15	1	3	no	1	4219	Subject	Match	Singular
216	monolingual	26	1	4	no	1	3823	Subject	Match	Singular
216	monolingual	15	1	5	no	1	3707	Subject	Match	Singular
216	monolingual	33	1	6	no	1	6895	Subject	Match	Singular
216	monolingual	23	1	7	no	1	7279	Subject	Match	Singular
216	monolingual	26	1	8	no	1	3893	Subject	Match	Singular
216	monolingual	28	1	9	no	1	5227	Subject	Match	Singular
216	monolingual	24	1	10	no	1	4302	Subject	Match	Singular
216	monolingual	2	2	1	no	1	3298	Object	Match	Singular
216	monolingual	8	2	2	no	1	3600	Object	Match	Singular
216	monolingual	29	2	3	no	1	3781	Object	Match	Singular
216	monolingual	29	2	4	no	1	4358	Object	Match	Singular
216	monolingual	40	2	5	no	1	6763	Object	Match	Singular
216	monolingual	33	2	6	no	1	5862	Object	Match	Singular
216	monolingual	17	2	7	no	0	6808	Object	Match	Singular
216	monolingual	12	2	8	no	1	3585	Object	Match	Singular
216	monolingual	8	2	9	no	1	3942	Object	Match	Singular
216	monolingual	40	2	10	no	1	4516	Object	Match	Singular
216	monolingual	32	3	1	no	1	4121	Subject	Mismatch	Singular
216	monolingual	37	3	2	no	1	5668	Subject	Mismatch	Singular
216	monolingual	37	3	3	no	1	6966	Subject	Mismatch	Singular
216	monolingual	9	3	4	no	1	4243	Subject	Mismatch	Singular
216	monolingual	20	3	5	no	1	3063	Subject	Mismatch	Singular
216	monolingual	9	3	6	no	1	3966	Subject	Mismatch	Singular
216	monolingual	32	3	7	no	1	4151	Subject	Mismatch	Singular
216	monolingual	5	3	8	no	1	3859	Subject	Mismatch	Singular
216	monolingual	19	3	9	no	1	4045	Subject	Mismatch	Singular
216	monolingual	5	3	10	no	1	4795	Subject	Mismatch	Singular
216	monolingual	35	4	1	no	1	3962	Object	Mismatch	Singular
216	monolingual	25	4	2	no	1	4800	Object	Mismatch	Singular
216	monolingual	2	4	3	no	1	4262	Object	Mismatch	Singular
216	monolingual	12	4	4	no	1	3703	Object	Mismatch	Singular
216	monolingual	24	4	6	no	1	3469	Object	Mismatch	Singular
216	monolingual	16	4	7	no	1	4176	Object	Mismatch	Singular
216	monolingual	23	4	9	no	1	6989	Object	Mismatch	Singular
216	monolingual	16	4	10	no	1	4538	Object	Mismatch	Singular
216	monolingual	13	5	1	no	1	6356	Subject	Mismatch	Plural
216	monolingual	22	5	2	no	1	3992	Subject	Mismatch	Plural
216	monolingual	21	5	3	no	1	4564	Subject	Mismatch	Plural
216	monolingual	25	5	4	no	1	6341	Subject	Mismatch	Plural
216	monolingual	3	5	5	no	1	5441	Subject	Mismatch	Plural
216	monolingual	3	5	6	no	1	6146	Subject	Mismatch	Plural
216	monolingual	34	5	7	no	1	6763	Subject	Mismatch	Plural
216	monolingual	13	5	10	no	1	5578	Subject	Mismatch	Plural
216	monolingual	31	6	1	no	1	6663	Object	Mismatch	Plural
216	monolingual	10	6	2	no	1	3955	Object	Mismatch	Plural
216	monolingual	38	6	3	no	1	8270	Object	Mismatch	Plural
216	monolingual	18	6	4	no	1	4594	Object	Mismatch	Plural
216	monolingual	31	6	5	no	1	6619	Object	Mismatch	Plural
216	monolingual	10	6	6	no	1	3843	Object	Mismatch	Plural
216	monolingual	19	6	7	no	0	3983	Object	Mismatch	Plural
216	monolingual	6	6	9	no	0	3541	Object	Mismatch	Plural
216	monolingual	6	6	10	no	1	7156	Object	Mismatch	Plural
216	monolingual	11	7	1	no	1	4227	Subject	Match	Plural
216	monolingual	17	7	2	no	1	6957	Subject	Match	Plural
216	monolingual	30	7	3	no	1	2506	Subject	Match	Plural
216	monolingual	18	7	4	no	1	4805	Subject	Match	Plural
216	monolingual	30	7	5	no	1	7422	Subject	Match	Plural
216	monolingual	39	7	6	no	1	4112	Subject	Match	Plural
216	monolingual	7	7	7	no	1	5295	Subject	Match	Plural
216	monolingual	7	7	8	no	1	4499	Subject	Match	Plural
216	monolingual	11	7	9	no	1	7027	Subject	Match	Plural
216	monolingual	39	7	10	no	1	9686	Subject	Match	Plural
216	monolingual	21	8	1	no	1	5481	Object	Match	Plural
216	monolingual	27	8	2	no	0	4906	Object	Match	Plural
216	monolingual	4	8	3	no	1	4774	Object	Match	Plural
216	monolingual	36	8	4	no	0	8378	Object	Match	Plural
216	monolingual	36	8	5	no	0	5686	Object	Match	Plural
216	monolingual	27	8	6	no	1	5662	Object	Match	Plural
216	monolingual	4	8	7	no	1	6154	Object	Match	Plural
216	monolingual	14	8	8	no	1	5304	Object	Match	Plural
216	monolingual	14	8	9	no	1	6583	Object	Match	Plural
216	monolingual	20	8	10	no	0	7844	Object	Match	Plural
217	monolingual	1	1	1	no	1	4193	Subject	Match	Singular
217	monolingual	1	1	2	no	1	3101	Subject	Match	Singular
217	monolingual	15	1	3	no	1	3855	Subject	Match	Singular
217	monolingual	26	1	4	no	1	3430	Subject	Match	Singular
217	monolingual	15	1	5	no	1	4174	Subject	Match	Singular
217	monolingual	33	1	6	no	1	3478	Subject	Match	Singular
217	monolingual	23	1	7	no	1	3782	Subject	Match	Singular
217	monolingual	26	1	8	no	1	3641	Subject	Match	Singular
217	monolingual	28	1	9	no	1	3558	Subject	Match	Singular
217	monolingual	24	1	10	no	1	3494	Subject	Match	Singular
217	monolingual	2	2	1	no	1	5073	Object	Match	Singular
217	monolingual	8	2	2	no	1	5262	Object	Match	Singular
217	monolingual	29	2	3	no	1	3717	Object	Match	Singular
217	monolingual	29	2	4	no	1	4521	Object	Match	Singular
217	monolingual	40	2	5	no	1	5493	Object	Match	Singular
217	monolingual	33	2	6	no	0	3502	Object	Match	Singular
217	monolingual	17	2	7	no	1	4364	Object	Match	Singular
217	monolingual	12	2	8	no	0	3492	Object	Match	Singular
217	monolingual	8	2	9	no	1	3683	Object	Match	Singular
217	monolingual	40	2	10	no	1	3588	Object	Match	Singular
217	monolingual	32	3	1	no	1	3768	Subject	Mismatch	Singular
217	monolingual	37	3	2	no	1	3892	Subject	Mismatch	Singular
217	monolingual	37	3	3	no	1	3930	Subject	Mismatch	Singular
217	monolingual	9	3	4	no	0	3644	Subject	Mismatch	Singular
217	monolingual	20	3	5	no	1	2930	Subject	Mismatch	Singular
217	monolingual	9	3	6	no	1	3758	Subject	Mismatch	Singular
217	monolingual	32	3	7	no	1	3672	Subject	Mismatch	Singular
217	monolingual	5	3	8	no	1	3897	Subject	Mismatch	Singular
217	monolingual	19	3	9	no	1	3812	Subject	Mismatch	Singular
217	monolingual	5	3	10	no	1	3668	Subject	Mismatch	Singular
217	monolingual	35	4	1	no	1	4016	Object	Mismatch	Singular
217	monolingual	25	4	2	no	1	3277	Object	Mismatch	Singular
217	monolingual	2	4	3	no	1	5324	Object	Mismatch	Singular
217	monolingual	12	4	4	no	1	4805	Object	Mismatch	Singular
217	monolingual	24	4	6	no	0	4859	Object	Mismatch	Singular
217	monolingual	16	4	7	no	1	4454	Object	Mismatch	Singular
217	monolingual	23	4	9	no	0	5927	Object	Mismatch	Singular
217	monolingual	16	4	10	no	1	4822	Object	Mismatch	Singular
217	monolingual	13	5	1	no	1	3373	Subject	Mismatch	Plural
217	monolingual	22	5	2	no	1	4425	Subject	Mismatch	Plural
217	monolingual	21	5	3	no	1	3711	Subject	Mismatch	Plural
217	monolingual	25	5	4	no	1	3485	Subject	Mismatch	Plural
217	monolingual	3	5	5	no	1	3401	Subject	Mismatch	Plural
217	monolingual	3	5	6	no	1	3423	Subject	Mismatch	Plural
217	monolingual	34	5	7	no	1	3421	Subject	Mismatch	Plural
217	monolingual	13	5	10	no	1	3765	Subject	Mismatch	Plural
217	monolingual	31	6	1	no	1	3431	Object	Mismatch	Plural
217	monolingual	10	6	2	no	1	4322	Object	Mismatch	Plural
217	monolingual	38	6	3	no	1	5767	Object	Mismatch	Plural
217	monolingual	18	6	4	no	0	7133	Object	Mismatch	Plural
217	monolingual	31	6	5	no	1	3396	Object	Mismatch	Plural
217	monolingual	10	6	6	no	1	4929	Object	Mismatch	Plural
217	monolingual	19	6	7	no	1	5265	Object	Mismatch	Plural
217	monolingual	6	6	9	no	1	3996	Object	Mismatch	Plural
217	monolingual	6	6	10	no	1	3319	Object	Mismatch	Plural
217	monolingual	11	7	1	no	1	3360	Subject	Match	Plural
217	monolingual	17	7	2	no	1	3428	Subject	Match	Plural
217	monolingual	30	7	3	no	1	4249	Subject	Match	Plural
217	monolingual	18	7	4	no	1	3491	Subject	Match	Plural
217	monolingual	30	7	5	no	1	4422	Subject	Match	Plural
217	monolingual	39	7	6	no	1	3734	Subject	Match	Plural
217	monolingual	7	7	7	no	1	3991	Subject	Match	Plural
217	monolingual	7	7	8	no	1	5227	Subject	Match	Plural
217	monolingual	11	7	9	no	1	3562	Subject	Match	Plural
217	monolingual	39	7	10	no	1	4228	Subject	Match	Plural
217	monolingual	21	8	1	no	1	6681	Object	Match	Plural
217	monolingual	27	8	2	no	1	6042	Object	Match	Plural
217	monolingual	4	8	3	no	1	3669	Object	Match	Plural
217	monolingual	36	8	4	no	0	3563	Object	Match	Plural
217	monolingual	36	8	5	no	0	3136	Object	Match	Plural
217	monolingual	27	8	6	no	1	4218	Object	Match	Plural
217	monolingual	4	8	7	no	1	8487	Object	Match	Plural
217	monolingual	14	8	8	no	0	3623	Object	Match	Plural
217	monolingual	14	8	9	no	0	3730	Object	Match	Plural
217	monolingual	20	8	10	no	1	4818	Object	Match	Plural
218	monolingual	1	1	1	no	1	18292	Subject	Match	Singular
218	monolingual	1	1	2	no	1	3910	Subject	Match	Singular
218	monolingual	15	1	3	no	1	7576	Subject	Match	Singular
218	monolingual	26	1	4	no	1	5826	Subject	Match	Singular
218	monolingual	15	1	5	no	1	3486	Subject	Match	Singular
218	monolingual	33	1	6	no	1	3426	Subject	Match	Singular
218	monolingual	23	1	7	no	1	4393	Subject	Match	Singular
218	monolingual	26	1	8	no	1	3421	Subject	Match	Singular
218	monolingual	28	1	9	no	1	4276	Subject	Match	Singular
218	monolingual	24	1	10	no	1	4480	Subject	Match	Singular
218	monolingual	2	2	1	no	1	3353	Object	Match	Singular
218	monolingual	8	2	2	no	1	3336	Object	Match	Singular
218	monolingual	29	2	3	no	1	8612	Object	Match	Singular
218	monolingual	29	2	4	no	1	6714	Object	Match	Singular
218	monolingual	40	2	5	no	1	3499	Object	Match	Singular
218	monolingual	33	2	6	no	1	3450	Object	Match	Singular
218	monolingual	17	2	7	no	1	3899	Object	Match	Singular
218	monolingual	12	2	8	no	1	7692	Object	Match	Singular
218	monolingual	8	2	9	no	1	3731	Object	Match	Singular
218	monolingual	40	2	10	no	0	4408	Object	Match	Singular
218	monolingual	32	3	1	no	1	3613	Subject	Mismatch	Singular
218	monolingual	37	3	2	no	1	3736	Subject	Mismatch	Singular
218	monolingual	37	3	3	no	1	4600	Subject	Mismatch	Singular
218	monolingual	9	3	4	no	1	5419	Subject	Mismatch	Singular
218	monolingual	20	3	5	no	1	6368	Subject	Mismatch	Singular
218	monolingual	9	3	6	no	1	3403	Subject	Mismatch	Singular
218	monolingual	32	3	7	no	1	4028	Subject	Mismatch	Singular
218	monolingual	5	3	8	no	1	7171	Subject	Mismatch	Singular
218	monolingual	19	3	9	no	1	3608	Subject	Mismatch	Singular
218	monolingual	5	3	10	no	1	3810	Subject	Mismatch	Singular
218	monolingual	35	4	1	no	1	3954	Object	Mismatch	Singular
218	monolingual	25	4	2	no	1	5438	Object	Mismatch	Singular
218	monolingual	2	4	3	no	1	5118	Object	Mismatch	Singular
218	monolingual	12	4	4	no	1	3185	Object	Mismatch	Singular
218	monolingual	24	4	6	no	1	5075	Object	Mismatch	Singular
218	monolingual	16	4	7	no	1	3658	Object	Mismatch	Singular
218	monolingual	23	4	9	no	1	6981	Object	Mismatch	Singular
218	monolingual	16	4	10	no	1	6055	Object	Mismatch	Singular
218	monolingual	13	5	1	no	1	6949	Subject	Mismatch	Plural
218	monolingual	22	5	2	no	1	3883	Subject	Mismatch	Plural
218	monolingual	21	5	3	no	1	4021	Subject	Mismatch	Plural
218	monolingual	25	5	4	no	1	6634	Subject	Mismatch	Plural
218	monolingual	3	5	5	no	1	3518	Subject	Mismatch	Plural
218	monolingual	3	5	6	no	1	3629	Subject	Mismatch	Plural
218	monolingual	34	5	7	no	1	3558	Subject	Mismatch	Plural
218	monolingual	13	5	10	no	1	3984	Subject	Mismatch	Plural
218	monolingual	31	6	1	no	1	3821	Object	Mismatch	Plural
218	monolingual	10	6	2	no	1	3734	Object	Mismatch	Plural
218	monolingual	38	6	3	no	1	4108	Object	Mismatch	Plural
218	monolingual	18	6	4	no	1	3605	Object	Mismatch	Plural
218	monolingual	31	6	5	no	1	3397	Object	Mismatch	Plural
218	monolingual	10	6	6	no	0	3231	Object	Mismatch	Plural
218	monolingual	19	6	7	no	1	3658	Object	Mismatch	Plural
218	monolingual	6	6	9	no	1	7896	Object	Mismatch	Plural
218	monolingual	6	6	10	no	1	5696	Object	Mismatch	Plural
218	monolingual	11	7	1	no	1	8568	Subject	Match	Plural
218	monolingual	17	7	2	no	1	3599	Subject	Match	Plural
218	monolingual	30	7	3	no	1	3571	Subject	Match	Plural
218	monolingual	18	7	4	no	1	6493	Subject	Match	Plural
218	monolingual	30	7	5	no	1	3852	Subject	Match	Plural
218	monolingual	39	7	6	no	1	3552	Subject	Match	Plural
218	monolingual	7	7	7	no	1	4388	Subject	Match	Plural
218	monolingual	7	7	8	no	1	4476	Subject	Match	Plural
218	monolingual	11	7	9	no	1	3679	Subject	Match	Plural
218	monolingual	39	7	10	no	1	4150	Subject	Match	Plural
218	monolingual	21	8	1	no	0	10795	Object	Match	Plural
218	monolingual	27	8	2	no	1	3408	Object	Match	Plural
218	monolingual	4	8	3	no	1	7416	Object	Match	Plural
218	monolingual	36	8	4	no	1	4112	Object	Match	Plural
218	monolingual	36	8	5	no	1	5418	Object	Match	Plural
218	monolingual	27	8	6	no	1	3834	Object	Match	Plural
218	monolingual	4	8	7	no	1	7850	Object	Match	Plural
218	monolingual	14	8	8	no	0	3619	Object	Match	Plural
218	monolingual	14	8	9	no	1	3428	Object	Match	Plural
218	monolingual	20	8	10	no	1	6002	Object	Match	Plural
219	monolingual	1	1	1	no	1	4796	Subject	Match	Singular
219	monolingual	1	1	2	no	1	4497	Subject	Match	Singular
219	monolingual	15	1	3	no	1	4626	Subject	Match	Singular
219	monolingual	26	1	4	no	1	5475	Subject	Match	Singular
219	monolingual	15	1	5	no	1	6696	Subject	Match	Singular
219	monolingual	33	1	6	no	1	5482	Subject	Match	Singular
219	monolingual	23	1	7	no	1	5539	Subject	Match	Singular
219	monolingual	26	1	8	no	1	4971	Subject	Match	Singular
219	monolingual	28	1	9	no	1	5457	Subject	Match	Singular
219	monolingual	24	1	10	no	1	5683	Subject	Match	Singular
219	monolingual	2	2	1	no	0	5097	Object	Match	Singular
219	monolingual	8	2	2	no	1	5728	Object	Match	Singular
219	monolingual	29	2	3	no	0	4331	Object	Match	Singular
219	monolingual	29	2	4	no	1	7688	Object	Match	Singular
219	monolingual	40	2	5	no	1	6288	Object	Match	Singular
219	monolingual	33	2	6	no	1	7046	Object	Match	Singular
219	monolingual	17	2	7	no	0	6144	Object	Match	Singular
219	monolingual	12	2	8	no	0	5145	Object	Match	Singular
219	monolingual	8	2	9	no	1	7086	Object	Match	Singular
219	monolingual	40	2	10	no	1	7964	Object	Match	Singular
219	monolingual	32	3	1	no	1	5940	Subject	Mismatch	Singular
219	monolingual	37	3	2	no	1	6262	Subject	Mismatch	Singular
219	monolingual	37	3	3	no	1	5369	Subject	Mismatch	Singular
219	monolingual	9	3	4	no	1	5288	Subject	Mismatch	Singular
219	monolingual	20	3	5	no	1	5752	Subject	Mismatch	Singular
219	monolingual	9	3	6	no	1	6182	Subject	Mismatch	Singular
219	monolingual	32	3	7	no	1	4249	Subject	Mismatch	Singular
219	monolingual	5	3	8	no	1	4495	Subject	Mismatch	Singular
219	monolingual	19	3	9	no	1	3971	Subject	Mismatch	Singular
219	monolingual	5	3	10	no	0	5819	Subject	Mismatch	Singular
219	monolingual	35	4	1	no	1	11687	Object	Mismatch	Singular
219	monolingual	25	4	2	no	1	4438	Object	Mismatch	Singular
219	monolingual	2	4	3	no	1	4823	Object	Mismatch	Singular
219	monolingual	12	4	4	no	1	9694	Object	Mismatch	Singular
219	monolingual	24	4	6	no	1	5980	Object	Mismatch	Singular
219	monolingual	16	4	7	no	1	5313	Object	Mismatch	Singular
219	monolingual	23	4	9	no	1	5268	Object	Mismatch	Singular
219	monolingual	16	4	10	no	1	11690	Object	Mismatch	Singular
219	monolingual	13	5	1	no	1	3899	Subject	Mismatch	Plural
219	monolingual	22	5	2	no	1	6533	Subject	Mismatch	Plural
219	monolingual	21	5	3	no	1	4025	Subject	Mismatch	Plural
219	monolingual	25	5	4	no	0	7357	Subject	Mismatch	Plural
219	monolingual	3	5	5	no	1	4909	Subject	Mismatch	Plural
219	monolingual	3	5	6	no	1	4965	Subject	Mismatch	Plural
219	monolingual	34	5	7	no	1	10558	Subject	Mismatch	Plural
219	monolingual	13	5	10	no	1	8234	Subject	Mismatch	Plural
219	monolingual	31	6	1	no	1	4418	Object	Mismatch	Plural
219	monolingual	10	6	2	no	1	4090	Object	Mismatch	Plural
219	monolingual	38	6	3	no	1	13239	Object	Mismatch	Plural
219	monolingual	18	6	4	no	1	6328	Object	Mismatch	Plural
219	monolingual	31	6	5	no	1	6927	Object	Mismatch	Plural
219	monolingual	10	6	6	no	1	6170	Object	Mismatch	Plural
219	monolingual	19	6	7	no	1	9006	Object	Mismatch	Plural
219	monolingual	6	6	9	no	1	6282	Object	Mismatch	Plural
219	monolingual	6	6	10	no	1	4107	Object	Mismatch	Plural
219	monolingual	11	7	1	no	1	8433	Subject	Match	Plural
219	monolingual	17	7	2	no	1	4780	Subject	Match	Plural
219	monolingual	30	7	3	no	1	11121	Subject	Match	Plural
219	monolingual	18	7	4	no	1	5334	Subject	Match	Plural
219	monolingual	30	7	5	no	1	8070	Subject	Match	Plural
219	monolingual	39	7	6	no	1	6530	Subject	Match	Plural
219	monolingual	7	7	7	no	1	4972	Subject	Match	Plural
219	monolingual	7	7	8	no	1	4973	Subject	Match	Plural
219	monolingual	11	7	9	no	1	4532	Subject	Match	Plural
219	monolingual	39	7	10	no	1	7108	Subject	Match	Plural
219	monolingual	21	8	1	no	1	6038	Object	Match	Plural
219	monolingual	27	8	2	no	0	4000	Object	Match	Plural
219	monolingual	4	8	3	no	1	4052	Object	Match	Plural
219	monolingual	36	8	4	no	1	8764	Object	Match	Plural
219	monolingual	36	8	5	no	1	8008	Object	Match	Plural
219	monolingual	27	8	6	no	1	4882	Object	Match	Plural
219	monolingual	4	8	7	no	1	5325	Object	Match	Plural
219	monolingual	14	8	8	no	1	6134	Object	Match	Plural
219	monolingual	14	8	9	no	1	5320	Object	Match	Plural
219	monolingual	20	8	10	no	1	8932	Object	Match	Plural
220	monolingual	1	1	1	no	1	4059	Subject	Match	Singular
220	monolingual	1	1	2	no	1	4481	Subject	Match	Singular
220	monolingual	15	1	3	no	1	3566	Subject	Match	Singular
220	monolingual	26	1	4	no	1	6328	Subject	Match	Singular
220	monolingual	15	1	5	no	1	4710	Subject	Match	Singular
220	monolingual	33	1	6	no	1	4339	Subject	Match	Singular
220	monolingual	23	1	7	no	1	5341	Subject	Match	Singular
220	monolingual	26	1	8	no	1	8145	Subject	Match	Singular
220	monolingual	28	1	9	no	1	5473	Subject	Match	Singular
220	monolingual	24	1	10	no	1	4071	Subject	Match	Singular
220	monolingual	2	2	1	no	1	3970	Object	Match	Singular
220	monolingual	8	2	2	no	1	6175	Object	Match	Singular
220	monolingual	29	2	3	no	1	4567	Object	Match	Singular
220	monolingual	29	2	4	no	1	4375	Object	Match	Singular
220	monolingual	40	2	5	no	1	4065	Object	Match	Singular
220	monolingual	33	2	6	no	1	3794	Object	Match	Singular
220	monolingual	17	2	7	no	1	4615	Object	Match	Singular
220	monolingual	12	2	8	no	1	3371	Object	Match	Singular
220	monolingual	8	2	9	no	1	4447	Object	Match	Singular
220	monolingual	40	2	10	no	1	3503	Object	Match	Singular
220	monolingual	32	3	1	no	1	3947	Subject	Mismatch	Singular
220	monolingual	37	3	2	no	1	4295	Subject	Mismatch	Singular
220	monolingual	37	3	3	no	1	4240	Subject	Mismatch	Singular
220	monolingual	9	3	4	no	1	3737	Subject	Mismatch	Singular
220	monolingual	20	3	5	no	1	3086	Subject	Mismatch	Singular
220	monolingual	9	3	6	no	1	4627	Subject	Mismatch	Singular
220	monolingual	32	3	7	no	1	4606	Subject	Mismatch	Singular
220	monolingual	5	3	8	no	1	3862	Subject	Mismatch	Singular
220	monolingual	19	3	9	no	1	4780	Subject	Mismatch	Singular
220	monolingual	5	3	10	no	1	4029	Subject	Mismatch	Singular
220	monolingual	35	4	1	no	1	8525	Object	Mismatch	Singular
220	monolingual	25	4	2	no	1	4524	Object	Mismatch	Singular
220	monolingual	2	4	3	no	0	6277	Object	Mismatch	Singular
220	monolingual	12	4	4	no	1	4442	Object	Mismatch	Singular
220	monolingual	24	4	6	no	1	3872	Object	Mismatch	Singular
220	monolingual	16	4	7	no	1	4029	Object	Mismatch	Singular
220	monolingual	23	4	9	no	1	5867	Object	Mismatch	Singular
220	monolingual	16	4	10	no	1	4072	Object	Mismatch	Singular
220	monolingual	13	5	1	no	1	5167	Subject	Mismatch	Plural
220	monolingual	22	5	2	no	1	5176	Subject	Mismatch	Plural
220	monolingual	21	5	3	no	1	4216	Subject	Mismatch	Plural
220	monolingual	25	5	4	no	1	3710	Subject	Mismatch	Plural
220	monolingual	3	5	5	no	1	3743	Subject	Mismatch	Plural
220	monolingual	3	5	6	no	1	4099	Subject	Mismatch	Plural
220	monolingual	34	5	7	no	1	6819	Subject	Mismatch	Plural
220	monolingual	13	5	10	no	1	5325	Subject	Mismatch	Plural
220	monolingual	31	6	1	no	1	4058	Object	Mismatch	Plural
220	monolingual	10	6	2	no	1	4463	Object	Mismatch	Plural
220	monolingual	38	6	3	no	1	3837	Object	Mismatch	Plural
220	monolingual	18	6	4	no	1	3994	Object	Mismatch	Plural
220	monolingual	31	6	5	no	1	5615	Object	Mismatch	Plural
220	monolingual	10	6	6	no	1	5838	Object	Mismatch	Plural
220	monolingual	19	6	7	no	1	4617	Object	Mismatch	Plural
220	monolingual	6	6	9	no	1	5356	Object	Mismatch	Plural
220	monolingual	6	6	10	no	1	4006	Object	Mismatch	Plural
220	monolingual	11	7	1	no	1	3742	Subject	Match	Plural
220	monolingual	17	7	2	no	1	4050	Subject	Match	Plural
220	monolingual	30	7	3	no	1	3647	Subject	Match	Plural
220	monolingual	18	7	4	no	1	4456	Subject	Match	Plural
220	monolingual	30	7	5	no	1	6178	Subject	Match	Plural
220	monolingual	39	7	6	no	1	4338	Subject	Match	Plural
220	monolingual	7	7	7	no	1	4516	Subject	Match	Plural
220	monolingual	7	7	8	no	1	5952	Subject	Match	Plural
220	monolingual	11	7	9	no	1	3683	Subject	Match	Plural
220	monolingual	39	7	10	no	1	4708	Subject	Match	Plural
220	monolingual	21	8	1	no	1	6487	Object	Match	Plural
220	monolingual	27	8	2	no	1	3769	Object	Match	Plural
220	monolingual	4	8	3	no	1	7427	Object	Match	Plural
220	monolingual	36	8	4	no	1	4051	Object	Match	Plural
220	monolingual	36	8	5	no	1	3446	Object	Match	Plural
220	monolingual	27	8	6	no	0	5381	Object	Match	Plural
220	monolingual	4	8	7	no	1	4104	Object	Match	Plural
220	monolingual	14	8	8	no	1	7934	Object	Match	Plural
220	monolingual	14	8	9	no	1	4303	Object	Match	Plural
220	monolingual	20	8	10	no	1	4008	Object	Match	Plural
221	monolingual	1	1	1	no	1	4215	Subject	Match	Singular
221	monolingual	1	1	2	no	1	6195	Subject	Match	Singular
221	monolingual	15	1	3	no	1	4885	Subject	Match	Singular
221	monolingual	26	1	4	no	1	6650	Subject	Match	Singular
221	monolingual	15	1	5	no	1	3645	Subject	Match	Singular
221	monolingual	33	1	6	no	1	3401	Subject	Match	Singular
221	monolingual	23	1	7	no	1	3929	Subject	Match	Singular
221	monolingual	26	1	8	no	1	2919	Subject	Match	Singular
221	monolingual	28	1	9	no	1	5100	Subject	Match	Singular
221	monolingual	24	1	10	no	1	4487	Subject	Match	Singular
221	monolingual	2	2	1	no	1	3371	Object	Match	Singular
221	monolingual	8	2	2	no	1	6151	Object	Match	Singular
221	monolingual	29	2	3	no	1	3891	Object	Match	Singular
221	monolingual	29	2	4	no	1	5331	Object	Match	Singular
221	monolingual	40	2	5	no	0	8917	Object	Match	Singular
221	monolingual	33	2	6	no	0	8986	Object	Match	Singular
221	monolingual	17	2	7	no	0	3759	Object	Match	Singular
221	monolingual	12	2	8	no	1	8117	Object	Match	Singular
221	monolingual	8	2	9	no	1	4583	Object	Match	Singular
221	monolingual	40	2	10	no	0	7158	Object	Match	Singular
221	monolingual	32	3	1	no	1	8360	Subject	Mismatch	Singular
221	monolingual	37	3	2	no	1	5939	Subject	Mismatch	Singular
221	monolingual	37	3	3	no	1	4193	Subject	Mismatch	Singular
221	monolingual	9	3	4	no	1	4200	Subject	Mismatch	Singular
221	monolingual	20	3	5	no	0	2830	Subject	Mismatch	Singular
221	monolingual	9	3	6	no	0	931	Subject	Mismatch	Singular
221	monolingual	32	3	7	no	1	4728	Subject	Mismatch	Singular
221	monolingual	5	3	8	no	1	3989	Subject	Mismatch	Singular
221	monolingual	19	3	9	no	1	3849	Subject	Mismatch	Singular
221	monolingual	5	3	10	no	1	3602	Subject	Mismatch	Singular
221	monolingual	35	4	1	no	1	2773	Object	Mismatch	Singular
221	monolingual	25	4	2	no	1	4494	Object	Mismatch	Singular
221	monolingual	2	4	3	no	1	4906	Object	Mismatch	Singular
221	monolingual	12	4	4	no	0	7451	Object	Mismatch	Singular
221	monolingual	24	4	6	no	1	7208	Object	Mismatch	Singular
221	monolingual	16	4	7	no	1	3495	Object	Mismatch	Singular
221	monolingual	23	4	9	no	1	10671	Object	Mismatch	Singular
221	monolingual	16	4	10	no	1	943	Object	Mismatch	Singular
221	monolingual	13	5	1	no	1	5335	Subject	Mismatch	Plural
221	monolingual	22	5	2	no	0	1250	Subject	Mismatch	Plural
221	monolingual	21	5	3	no	1	4021	Subject	Mismatch	Plural
221	monolingual	25	5	4	no	1	3648	Subject	Mismatch	Plural
221	monolingual	3	5	5	no	1	4727	Subject	Mismatch	Plural
221	monolingual	3	5	6	no	1	3613	Subject	Mismatch	Plural
221	monolingual	34	5	7	no	1	7848	Subject	Mismatch	Plural
221	monolingual	13	5	10	no	1	3883	Subject	Mismatch	Plural
221	monolingual	31	6	1	no	0	15753	Object	Mismatch	Plural
221	monolingual	10	6	2	no	1	3116	Object	Mismatch	Plural
221	monolingual	38	6	3	no	1	5460	Object	Mismatch	Plural
221	monolingual	18	6	4	no	1	1507	Object	Mismatch	Plural
221	monolingual	31	6	5	no	1	6600	Object	Mismatch	Plural
221	monolingual	10	6	6	no	1	5823	Object	Mismatch	Plural
221	monolingual	19	6	7	no	0	926	Object	Mismatch	Plural
221	monolingual	6	6	9	no	0	4083	Object	Mismatch	Plural
221	monolingual	6	6	10	no	1	4403	Object	Mismatch	Plural
221	monolingual	11	7	1	no	1	5121	Subject	Match	Plural
221	monolingual	17	7	2	no	1	8593	Subject	Match	Plural
221	monolingual	30	7	3	no	1	6418	Subject	Match	Plural
221	monolingual	18	7	4	no	1	1928	Subject	Match	Plural
221	monolingual	30	7	5	no	1	5446	Subject	Match	Plural
221	monolingual	39	7	6	no	1	7782	Subject	Match	Plural
221	monolingual	7	7	7	no	0	1502	Subject	Match	Plural
221	monolingual	7	7	8	no	1	3599	Subject	Match	Plural
221	monolingual	11	7	9	no	1	4052	Subject	Match	Plural
221	monolingual	39	7	10	no	1	5553	Subject	Match	Plural
221	monolingual	21	8	1	no	1	3648	Object	Match	Plural
221	monolingual	27	8	2	no	1	3178	Object	Match	Plural
221	monolingual	4	8	3	no	1	7658	Object	Match	Plural
221	monolingual	36	8	4	no	0	5394	Object	Match	Plural
221	monolingual	36	8	5	no	1	6827	Object	Match	Plural
221	monolingual	27	8	6	no	1	377	Object	Match	Plural
221	monolingual	4	8	7	no	1	3536	Object	Match	Plural
221	monolingual	14	8	8	no	1	3658	Object	Match	Plural
221	monolingual	14	8	9	no	1	442	Object	Match	Plural
221	monolingual	20	8	10	no	1	10109	Object	Match	Plural
222	monolingual	1	1	1	no	1	3913	Subject	Match	Singular
222	monolingual	1	1	2	no	1	5188	Subject	Match	Singular
222	monolingual	15	1	3	no	1	4870	Subject	Match	Singular
222	monolingual	26	1	4	no	1	4298	Subject	Match	Singular
222	monolingual	15	1	5	no	1	3720	Subject	Match	Singular
222	monolingual	33	1	6	no	1	4304	Subject	Match	Singular
222	monolingual	23	1	7	no	1	6417	Subject	Match	Singular
222	monolingual	26	1	8	no	1	847	Subject	Match	Singular
222	monolingual	28	1	9	no	1	3613	Subject	Match	Singular
222	monolingual	24	1	10	no	1	3729	Subject	Match	Singular
222	monolingual	2	2	1	no	1	3378	Object	Match	Singular
222	monolingual	8	2	2	no	1	3748	Object	Match	Singular
222	monolingual	29	2	3	no	1	4504	Object	Match	Singular
222	monolingual	29	2	4	no	1	4914	Object	Match	Singular
222	monolingual	40	2	5	no	1	3949	Object	Match	Singular
222	monolingual	33	2	6	no	1	4626	Object	Match	Singular
222	monolingual	17	2	7	no	1	3222	Object	Match	Singular
222	monolingual	12	2	8	no	1	4620	Object	Match	Singular
222	monolingual	8	2	9	no	1	3713	Object	Match	Singular
222	monolingual	40	2	10	no	1	3914	Object	Match	Singular
222	monolingual	32	3	1	no	1	4433	Subject	Mismatch	Singular
222	monolingual	37	3	2	no	1	4332	Subject	Mismatch	Singular
222	monolingual	37	3	3	no	1	4211	Subject	Mismatch	Singular
222	monolingual	9	3	4	no	1	3917	Subject	Mismatch	Singular
222	monolingual	20	3	5	no	1	2710	Subject	Mismatch	Singular
222	monolingual	9	3	6	no	1	3362	Subject	Mismatch	Singular
222	monolingual	32	3	7	no	1	5289	Subject	Mismatch	Singular
222	monolingual	5	3	8	no	1	3776	Subject	Mismatch	Singular
222	monolingual	19	3	9	no	1	5578	Subject	Mismatch	Singular
222	monolingual	5	3	10	no	1	5478	Subject	Mismatch	Singular
222	monolingual	35	4	1	no	0	4193	Object	Mismatch	Singular
222	monolingual	25	4	2	no	1	4001	Object	Mismatch	Singular
222	monolingual	2	4	3	no	1	3855	Object	Mismatch	Singular
222	monolingual	12	4	4	no	0	4813	Object	Mismatch	Singular
222	monolingual	24	4	6	no	1	3369	Object	Mismatch	Singular
222	monolingual	16	4	7	no	1	3785	Object	Mismatch	Singular
222	monolingual	23	4	9	no	1	3856	Object	Mismatch	Singular
222	monolingual	16	4	10	no	1	3907	Object	Mismatch	Singular
222	monolingual	13	5	1	no	1	3564	Subject	Mismatch	Plural
222	monolingual	22	5	2	no	1	3521	Subject	Mismatch	Plural
222	monolingual	21	5	3	no	1	4071	Subject	Mismatch	Plural
222	monolingual	25	5	4	no	1	5011	Subject	Mismatch	Plural
222	monolingual	3	5	5	no	1	3339	Subject	Mismatch	Plural
222	monolingual	3	5	6	no	1	3860	Subject	Mismatch	Plural
222	monolingual	34	5	7	no	1	4178	Subject	Mismatch	Plural
222	monolingual	13	5	10	no	1	5820	Subject	Mismatch	Plural
222	monolingual	31	6	1	no	0	4837	Object	Mismatch	Plural
222	monolingual	10	6	2	no	1	3433	Object	Mismatch	Plural
222	monolingual	38	6	3	no	0	4793	Object	Mismatch	Plural
222	monolingual	18	6	4	no	1	3208	Object	Mismatch	Plural
222	monolingual	31	6	5	no	0	3801	Object	Mismatch	Plural
222	monolingual	10	6	6	no	1	3898	Object	Mismatch	Plural
222	monolingual	19	6	7	no	1	3479	Object	Mismatch	Plural
222	monolingual	6	6	9	no	1	3719	Object	Mismatch	Plural
222	monolingual	6	6	10	no	1	3187	Object	Mismatch	Plural
222	monolingual	11	7	1	no	1	4888	Subject	Match	Plural
222	monolingual	17	7	2	no	1	3905	Subject	Match	Plural
222	monolingual	30	7	3	no	1	3416	Subject	Match	Plural
222	monolingual	18	7	4	no	0	3748	Subject	Match	Plural
222	monolingual	30	7	5	no	1	4073	Subject	Match	Plural
222	monolingual	39	7	6	no	1	3931	Subject	Match	Plural
222	monolingual	7	7	7	no	1	4055	Subject	Match	Plural
222	monolingual	7	7	8	no	1	3696	Subject	Match	Plural
222	monolingual	11	7	9	no	1	4341	Subject	Match	Plural
222	monolingual	39	7	10	no	1	4794	Subject	Match	Plural
222	monolingual	21	8	1	no	1	4826	Object	Match	Plural
222	monolingual	27	8	2	no	1	3200	Object	Match	Plural
222	monolingual	4	8	3	no	0	4083	Object	Match	Plural
222	monolingual	36	8	4	no	0	3978	Object	Match	Plural
222	monolingual	36	8	5	no	0	3735	Object	Match	Plural
222	monolingual	27	8	6	no	0	3896	Object	Match	Plural
222	monolingual	4	8	7	no	1	5242	Object	Match	Plural
222	monolingual	14	8	8	no	0	5265	Object	Match	Plural
222	monolingual	14	8	9	no	1	3911	Object	Match	Plural
222	monolingual	20	8	10	no	1	3854	Object	Match	Plural
223	monolingual	1	1	1	no	1	5022	Subject	Match	Singular
223	monolingual	15	1	5	no	1	3548	Subject	Match	Singular
223	monolingual	33	1	6	no	1	3793	Subject	Match	Singular
223	monolingual	23	1	7	no	1	4279	Subject	Match	Singular
223	monolingual	26	1	8	no	1	4360	Subject	Match	Singular
223	monolingual	28	1	9	no	1	3725	Subject	Match	Singular
223	monolingual	8	2	2	no	1	3957	Object	Match	Singular
223	monolingual	29	2	3	no	1	7082	Object	Match	Singular
223	monolingual	40	2	5	no	1	4501	Object	Match	Singular
223	monolingual	37	3	3	no	1	3924	Subject	Mismatch	Singular
223	monolingual	9	3	4	no	1	5210	Subject	Mismatch	Singular
223	monolingual	32	3	7	no	1	4118	Subject	Mismatch	Singular
223	monolingual	19	3	9	no	1	5734	Subject	Mismatch	Singular
223	monolingual	5	3	10	no	1	7210	Subject	Mismatch	Singular
223	monolingual	2	4	3	no	1	6129	Object	Mismatch	Singular
223	monolingual	12	4	4	no	1	6072	Object	Mismatch	Singular
223	monolingual	24	4	6	no	1	3857	Object	Mismatch	Singular
223	monolingual	16	4	7	no	0	3798	Object	Mismatch	Singular
223	monolingual	21	5	3	no	1	3863	Subject	Mismatch	Plural
223	monolingual	25	5	4	no	1	6189	Subject	Mismatch	Plural
223	monolingual	3	5	5	no	1	3604	Subject	Mismatch	Plural
223	monolingual	13	5	10	no	1	5931	Subject	Mismatch	Plural
223	monolingual	31	6	1	no	1	3978	Object	Mismatch	Plural
223	monolingual	18	6	4	no	0	5210	Object	Mismatch	Plural
223	monolingual	10	6	6	no	1	3160	Object	Mismatch	Plural
223	monolingual	6	6	9	no	1	3153	Object	Mismatch	Plural
223	monolingual	11	7	1	no	1	3782	Subject	Match	Plural
223	monolingual	17	7	2	no	1	4530	Subject	Match	Plural
223	monolingual	30	7	5	no	1	4424	Subject	Match	Plural
223	monolingual	7	7	8	no	1	4679	Subject	Match	Plural
223	monolingual	39	7	10	no	1	11387	Subject	Match	Plural
223	monolingual	27	8	2	no	1	6051	Object	Match	Plural
223	monolingual	36	8	4	no	1	7624	Object	Match	Plural
223	monolingual	4	8	7	no	1	4085	Object	Match	Plural
223	monolingual	14	8	8	no	1	4302	Object	Match	Plural
223	monolingual	20	8	10	no	1	4083	Object	Match	Plural
224	monolingual	1	1	1	no	1	6576	Subject	Match	Singular
224	monolingual	1	1	2	no	1	5685	Subject	Match	Singular
224	monolingual	15	1	3	no	1	5889	Subject	Match	Singular
224	monolingual	26	1	4	no	1	4944	Subject	Match	Singular
224	monolingual	15	1	5	no	1	3343	Subject	Match	Singular
224	monolingual	33	1	6	no	1	4211	Subject	Match	Singular
224	monolingual	23	1	7	no	1	5780	Subject	Match	Singular
224	monolingual	26	1	8	no	1	3951	Subject	Match	Singular
224	monolingual	28	1	9	no	1	5181	Subject	Match	Singular
224	monolingual	24	1	10	no	1	4119	Subject	Match	Singular
224	monolingual	2	2	1	no	1	5308	Object	Match	Singular
224	monolingual	8	2	2	no	1	3584	Object	Match	Singular
224	monolingual	29	2	3	no	1	8189	Object	Match	Singular
224	monolingual	29	2	4	no	1	6987	Object	Match	Singular
224	monolingual	40	2	5	no	1	6596	Object	Match	Singular
224	monolingual	33	2	6	no	1	5208	Object	Match	Singular
224	monolingual	17	2	7	no	0	4376	Object	Match	Singular
224	monolingual	12	2	8	no	1	6272	Object	Match	Singular
224	monolingual	8	2	9	no	1	4020	Object	Match	Singular
224	monolingual	40	2	10	no	1	6275	Object	Match	Singular
224	monolingual	32	3	1	no	1	5182	Subject	Mismatch	Singular
224	monolingual	37	3	2	no	1	5797	Subject	Mismatch	Singular
224	monolingual	37	3	3	no	1	4739	Subject	Mismatch	Singular
224	monolingual	9	3	4	no	1	3900	Subject	Mismatch	Singular
224	monolingual	20	3	5	no	1	8206	Subject	Mismatch	Singular
224	monolingual	9	3	6	no	1	6155	Subject	Mismatch	Singular
224	monolingual	32	3	7	no	1	4015	Subject	Mismatch	Singular
224	monolingual	5	3	8	no	1	4367	Subject	Mismatch	Singular
224	monolingual	19	3	9	no	1	4420	Subject	Mismatch	Singular
224	monolingual	5	3	10	no	1	4284	Subject	Mismatch	Singular
224	monolingual	35	4	1	no	1	4288	Object	Mismatch	Singular
224	monolingual	25	4	2	no	1	3612	Object	Mismatch	Singular
224	monolingual	2	4	3	no	1	5831	Object	Mismatch	Singular
224	monolingual	12	4	4	no	1	5790	Object	Mismatch	Singular
224	monolingual	24	4	6	no	1	4175	Object	Mismatch	Singular
224	monolingual	16	4	7	no	1	5234	Object	Mismatch	Singular
224	monolingual	23	4	9	no	1	8327	Object	Mismatch	Singular
224	monolingual	16	4	10	no	1	4118	Object	Mismatch	Singular
224	monolingual	13	5	1	no	1	4693	Subject	Mismatch	Plural
224	monolingual	22	5	2	no	1	3657	Subject	Mismatch	Plural
224	monolingual	21	5	3	no	1	4045	Subject	Mismatch	Plural
224	monolingual	25	5	4	no	1	4253	Subject	Mismatch	Plural
224	monolingual	3	5	5	no	1	4260	Subject	Mismatch	Plural
224	monolingual	3	5	6	no	1	5199	Subject	Mismatch	Plural
224	monolingual	34	5	7	no	1	3676	Subject	Mismatch	Plural
224	monolingual	13	5	10	no	1	6145	Subject	Mismatch	Plural
224	monolingual	31	6	1	no	1	4550	Object	Mismatch	Plural
224	monolingual	10	6	2	no	1	3613	Object	Mismatch	Plural
224	monolingual	38	6	3	no	1	5292	Object	Mismatch	Plural
224	monolingual	18	6	4	no	1	5743	Object	Mismatch	Plural
224	monolingual	31	6	5	no	1	5827	Object	Mismatch	Plural
224	monolingual	10	6	6	no	0	4260	Object	Mismatch	Plural
224	monolingual	19	6	7	no	1	3576	Object	Mismatch	Plural
224	monolingual	6	6	9	no	1	5540	Object	Mismatch	Plural
224	monolingual	6	6	10	no	1	3706	Object	Mismatch	Plural
224	monolingual	11	7	1	no	1	4087	Subject	Match	Plural
224	monolingual	17	7	2	no	1	4150	Subject	Match	Plural
224	monolingual	30	7	3	no	1	4178	Subject	Match	Plural
224	monolingual	18	7	4	no	1	6318	Subject	Match	Plural
224	monolingual	30	7	5	no	1	8118	Subject	Match	Plural
224	monolingual	39	7	6	no	1	5354	Subject	Match	Plural
224	monolingual	7	7	7	no	1	4587	Subject	Match	Plural
224	monolingual	7	7	8	no	1	4350	Subject	Match	Plural
224	monolingual	11	7	9	no	1	4572	Subject	Match	Plural
224	monolingual	39	7	10	no	1	7545	Subject	Match	Plural
224	monolingual	21	8	1	no	1	4952	Object	Match	Plural
224	monolingual	27	8	2	no	1	5214	Object	Match	Plural
224	monolingual	4	8	3	no	1	3768	Object	Match	Plural
224	monolingual	36	8	4	no	1	4112	Object	Match	Plural
224	monolingual	36	8	5	no	1	4384	Object	Match	Plural
224	monolingual	27	8	6	no	1	4069	Object	Match	Plural
224	monolingual	4	8	7	no	1	7843	Object	Match	Plural
224	monolingual	14	8	8	no	1	4043	Object	Match	Plural
224	monolingual	14	8	9	no	1	4517	Object	Match	Plural
224	monolingual	20	8	10	no	1	4496	Object	Match	Plural
225	monolingual	1	1	1	no	1	4034	Subject	Match	Singular
225	monolingual	1	1	2	no	1	4402	Subject	Match	Singular
225	monolingual	15	1	3	no	1	7037	Subject	Match	Singular
225	monolingual	26	1	4	no	1	4004	Subject	Match	Singular
225	monolingual	15	1	5	no	1	4694	Subject	Match	Singular
225	monolingual	33	1	6	no	1	4243	Subject	Match	Singular
225	monolingual	23	1	7	no	1	5160	Subject	Match	Singular
225	monolingual	26	1	8	no	1	4307	Subject	Match	Singular
225	monolingual	28	1	9	no	0	3839	Subject	Match	Singular
225	monolingual	24	1	10	no	0	3557	Subject	Match	Singular
225	monolingual	2	2	1	no	1	4425	Object	Match	Singular
225	monolingual	8	2	2	no	1	4893	Object	Match	Singular
225	monolingual	29	2	3	no	1	12576	Object	Match	Singular
225	monolingual	29	2	4	no	1	4399	Object	Match	Singular
225	monolingual	40	2	5	no	1	5012	Object	Match	Singular
225	monolingual	33	2	6	no	0	3901	Object	Match	Singular
225	monolingual	17	2	7	no	1	8267	Object	Match	Singular
225	monolingual	12	2	8	no	0	5321	Object	Match	Singular
225	monolingual	8	2	9	no	0	7333	Object	Match	Singular
225	monolingual	40	2	10	no	1	7041	Object	Match	Singular
225	monolingual	32	3	1	no	1	4024	Subject	Mismatch	Singular
225	monolingual	37	3	2	no	1	408	Subject	Mismatch	Singular
225	monolingual	37	3	3	no	1	5262	Subject	Mismatch	Singular
225	monolingual	9	3	4	no	1	5259	Subject	Mismatch	Singular
225	monolingual	20	3	5	no	1	3621	Subject	Mismatch	Singular
225	monolingual	9	3	6	no	1	3907	Subject	Mismatch	Singular
225	monolingual	32	3	7	no	1	5339	Subject	Mismatch	Singular
225	monolingual	5	3	8	no	1	4904	Subject	Mismatch	Singular
225	monolingual	19	3	9	no	1	4121	Subject	Mismatch	Singular
225	monolingual	5	3	10	no	1	4867	Subject	Mismatch	Singular
225	monolingual	35	4	1	no	0	3856	Object	Mismatch	Singular
225	monolingual	25	4	2	no	1	2048	Object	Mismatch	Singular
225	monolingual	2	4	3	no	1	5377	Object	Mismatch	Singular
225	monolingual	12	4	4	no	1	3766	Object	Mismatch	Singular
225	monolingual	24	4	6	no	1	4141	Object	Mismatch	Singular
225	monolingual	16	4	7	no	0	14	Object	Mismatch	Singular
225	monolingual	23	4	9	no	0	4957	Object	Mismatch	Singular
225	monolingual	16	4	10	no	1	3964	Object	Mismatch	Singular
225	monolingual	13	5	1	no	0	6205	Subject	Mismatch	Plural
225	monolingual	22	5	2	no	1	4046	Subject	Mismatch	Plural
225	monolingual	21	5	3	no	1	3829	Subject	Mismatch	Plural
225	monolingual	25	5	4	no	0	6709	Subject	Mismatch	Plural
225	monolingual	3	5	5	no	1	3675	Subject	Mismatch	Plural
225	monolingual	3	5	6	no	1	4469	Subject	Mismatch	Plural
225	monolingual	34	5	7	no	1	4605	Subject	Mismatch	Plural
225	monolingual	13	5	10	no	1	4771	Subject	Mismatch	Plural
225	monolingual	31	6	1	no	1	5968	Object	Mismatch	Plural
225	monolingual	10	6	2	no	1	5277	Object	Mismatch	Plural
225	monolingual	38	6	3	no	0	3641	Object	Mismatch	Plural
225	monolingual	18	6	4	no	0	3612	Object	Mismatch	Plural
225	monolingual	31	6	5	no	1	3920	Object	Mismatch	Plural
225	monolingual	10	6	6	no	1	4416	Object	Mismatch	Plural
225	monolingual	19	6	7	no	0	5241	Object	Mismatch	Plural
225	monolingual	6	6	9	no	1	3509	Object	Mismatch	Plural
225	monolingual	6	6	10	no	0	4190	Object	Mismatch	Plural
225	monolingual	11	7	1	no	1	3825	Subject	Match	Plural
225	monolingual	17	7	2	no	0	4595	Subject	Match	Plural
225	monolingual	30	7	3	no	1	403	Subject	Match	Plural
225	monolingual	18	7	4	no	1	4245	Subject	Match	Plural
225	monolingual	30	7	5	no	0	4204	Subject	Match	Plural
225	monolingual	39	7	6	no	1	4411	Subject	Match	Plural
225	monolingual	7	7	7	no	1	4922	Subject	Match	Plural
225	monolingual	7	7	8	no	1	4497	Subject	Match	Plural
225	monolingual	11	7	9	no	1	4020	Subject	Match	Plural
225	monolingual	39	7	10	no	1	5411	Subject	Match	Plural
225	monolingual	21	8	1	no	0	6124	Object	Match	Plural
225	monolingual	27	8	2	no	1	4524	Object	Match	Plural
225	monolingual	4	8	3	no	1	5717	Object	Match	Plural
225	monolingual	36	8	4	no	0	4845	Object	Match	Plural
225	monolingual	36	8	5	no	1	30	Object	Match	Plural
225	monolingual	27	8	6	no	1	5745	Object	Match	Plural
225	monolingual	4	8	7	no	1	4139	Object	Match	Plural
225	monolingual	14	8	8	no	0	5125	Object	Match	Plural
225	monolingual	14	8	9	no	0	3956	Object	Match	Plural
225	monolingual	20	8	10	no	1	7307	Object	Match	Plural
226	monolingual	1	1	1	no	1	7293	Subject	Match	Singular
226	monolingual	1	1	2	no	1	4223	Subject	Match	Singular
226	monolingual	15	1	3	no	1	5104	Subject	Match	Singular
226	monolingual	26	1	4	no	1	5811	Subject	Match	Singular
226	monolingual	15	1	5	no	1	3281	Subject	Match	Singular
226	monolingual	33	1	6	no	1	4024	Subject	Match	Singular
226	monolingual	23	1	7	no	1	4257	Subject	Match	Singular
226	monolingual	26	1	8	no	1	3477	Subject	Match	Singular
226	monolingual	28	1	9	no	1	3472	Subject	Match	Singular
226	monolingual	24	1	10	no	1	8379	Subject	Match	Singular
226	monolingual	2	2	1	no	1	3997	Object	Match	Singular
226	monolingual	8	2	2	no	1	4656	Object	Match	Singular
226	monolingual	29	2	3	no	1	6946	Object	Match	Singular
226	monolingual	29	2	4	no	0	13408	Object	Match	Singular
226	monolingual	40	2	5	no	1	3804	Object	Match	Singular
226	monolingual	33	2	6	no	1	4673	Object	Match	Singular
226	monolingual	17	2	7	no	1	3296	Object	Match	Singular
226	monolingual	12	2	8	no	1	3219	Object	Match	Singular
226	monolingual	8	2	9	no	1	4066	Object	Match	Singular
226	monolingual	40	2	10	no	1	5317	Object	Match	Singular
226	monolingual	32	3	1	no	1	4117	Subject	Mismatch	Singular
226	monolingual	37	3	2	no	1	3878	Subject	Mismatch	Singular
226	monolingual	37	3	3	no	1	4283	Subject	Mismatch	Singular
226	monolingual	9	3	4	no	1	3602	Subject	Mismatch	Singular
226	monolingual	20	3	5	no	1	2979	Subject	Mismatch	Singular
226	monolingual	9	3	6	no	1	3772	Subject	Mismatch	Singular
226	monolingual	32	3	7	no	1	5728	Subject	Mismatch	Singular
226	monolingual	5	3	8	no	1	3761	Subject	Mismatch	Singular
226	monolingual	19	3	9	no	1	8503	Subject	Mismatch	Singular
226	monolingual	5	3	10	no	1	5082	Subject	Mismatch	Singular
226	monolingual	35	4	1	no	1	5108	Object	Mismatch	Singular
226	monolingual	25	4	2	no	1	4736	Object	Mismatch	Singular
226	monolingual	2	4	3	no	1	5712	Object	Mismatch	Singular
226	monolingual	12	4	4	no	1	4712	Object	Mismatch	Singular
226	monolingual	24	4	6	no	1	3492	Object	Mismatch	Singular
226	monolingual	16	4	7	no	1	3558	Object	Mismatch	Singular
226	monolingual	23	4	9	no	1	4533	Object	Mismatch	Singular
226	monolingual	16	4	10	no	1	4642	Object	Mismatch	Singular
226	monolingual	13	5	1	no	1	3689	Subject	Mismatch	Plural
226	monolingual	22	5	2	no	1	6172	Subject	Mismatch	Plural
226	monolingual	21	5	3	no	1	5453	Subject	Mismatch	Plural
226	monolingual	25	5	4	no	0	4917	Subject	Mismatch	Plural
226	monolingual	3	5	5	no	1	3662	Subject	Mismatch	Plural
226	monolingual	3	5	6	no	1	3511	Subject	Mismatch	Plural
226	monolingual	34	5	7	no	1	3554	Subject	Mismatch	Plural
226	monolingual	13	5	10	no	1	4435	Subject	Mismatch	Plural
226	monolingual	31	6	1	no	1	4529	Object	Mismatch	Plural
226	monolingual	10	6	2	no	1	4755	Object	Mismatch	Plural
226	monolingual	38	6	3	no	1	5262	Object	Mismatch	Plural
226	monolingual	18	6	4	no	1	7496	Object	Mismatch	Plural
226	monolingual	31	6	5	no	1	3725	Object	Mismatch	Plural
226	monolingual	10	6	6	no	1	3581	Object	Mismatch	Plural
226	monolingual	19	6	7	no	1	3727	Object	Mismatch	Plural
226	monolingual	6	6	9	no	1	7688	Object	Mismatch	Plural
226	monolingual	6	6	10	no	1	6339	Object	Mismatch	Plural
226	monolingual	11	7	1	no	1	3370	Subject	Match	Plural
226	monolingual	17	7	2	no	1	3463	Subject	Match	Plural
226	monolingual	30	7	3	no	1	4072	Subject	Match	Plural
226	monolingual	18	7	4	no	1	9427	Subject	Match	Plural
226	monolingual	30	7	5	no	1	4950	Subject	Match	Plural
226	monolingual	39	7	6	no	1	6999	Subject	Match	Plural
226	monolingual	7	7	7	no	1	4489	Subject	Match	Plural
226	monolingual	7	7	8	no	1	3730	Subject	Match	Plural
226	monolingual	11	7	9	no	1	3722	Subject	Match	Plural
226	monolingual	39	7	10	no	1	4707	Subject	Match	Plural
226	monolingual	21	8	1	no	1	5661	Object	Match	Plural
226	monolingual	27	8	2	no	1	4611	Object	Match	Plural
226	monolingual	4	8	3	no	1	3624	Object	Match	Plural
226	monolingual	36	8	4	no	1	3786	Object	Match	Plural
226	monolingual	36	8	5	no	1	4094	Object	Match	Plural
226	monolingual	27	8	6	no	1	12854	Object	Match	Plural
226	monolingual	4	8	7	no	1	4215	Object	Match	Plural
226	monolingual	14	8	8	no	1	4490	Object	Match	Plural
226	monolingual	14	8	9	no	1	3858	Object	Match	Plural
226	monolingual	20	8	10	no	1	11299	Object	Match	Plural
227	monolingual	1	1	1	no	1	5061	Subject	Match	Singular
227	monolingual	1	1	2	no	1	3511	Subject	Match	Singular
227	monolingual	15	1	3	no	1	6312	Subject	Match	Singular
227	monolingual	26	1	4	no	1	3442	Subject	Match	Singular
227	monolingual	15	1	5	no	1	3488	Subject	Match	Singular
227	monolingual	33	1	6	no	1	4209	Subject	Match	Singular
227	monolingual	23	1	7	no	1	4251	Subject	Match	Singular
227	monolingual	26	1	8	no	1	3530	Subject	Match	Singular
227	monolingual	28	1	9	no	1	3707	Subject	Match	Singular
227	monolingual	24	1	10	no	1	5241	Subject	Match	Singular
227	monolingual	2	2	1	no	1	3739	Object	Match	Singular
227	monolingual	8	2	2	no	0	6985	Object	Match	Singular
227	monolingual	29	2	3	no	1	11592	Object	Match	Singular
227	monolingual	29	2	4	no	1	4321	Object	Match	Singular
227	monolingual	40	2	5	no	0	5291	Object	Match	Singular
227	monolingual	33	2	6	no	1	3643	Object	Match	Singular
227	monolingual	17	2	7	no	1	3377	Object	Match	Singular
227	monolingual	12	2	8	no	1	5427	Object	Match	Singular
227	monolingual	8	2	9	no	1	6501	Object	Match	Singular
227	monolingual	40	2	10	no	1	3587	Object	Match	Singular
227	monolingual	32	3	1	no	1	3802	Subject	Mismatch	Singular
227	monolingual	37	3	2	no	1	5872	Subject	Mismatch	Singular
227	monolingual	37	3	3	no	1	4767	Subject	Mismatch	Singular
227	monolingual	9	3	4	no	1	3801	Subject	Mismatch	Singular
227	monolingual	20	3	5	no	1	3735	Subject	Mismatch	Singular
227	monolingual	9	3	6	no	1	5299	Subject	Mismatch	Singular
227	monolingual	32	3	7	no	1	4129	Subject	Mismatch	Singular
227	monolingual	5	3	8	no	1	3729	Subject	Mismatch	Singular
